intro_loop.thisRepN,intro_loop.thisTrialN,intro_loop.thisN,intro_loop.thisIndex,intro_loop.ran,Figure,Figure2,Figure3,Figure4,Text,participant,session,date,expName,psychopyVersion,OS,frameRate,key_resp.keys,key_resp.rt,confidence_response.keys,confidence_response.rt,practice_trials.thisRepN,practice_trials.thisTrialN,practice_trials.thisN,practice_trials.thisIndex,practice_trials.ran,beads_image,intro_agents.thisRepN,intro_agents.thisTrialN,intro_agents.thisN,intro_agents.thisIndex,intro_agents.ran,key_resp1.keys,key_resp1.rt,trials.thisRepN,trials.thisTrialN,trials.thisN,trials.thisIndex,trials.ran,agent1,agent1_face,agent2,agent2_face,agent3,agent3_face,agent4,agent4_face,key_resp_4.keys,key_resp_4.rt,participant_decision.keys,participant_decision.rt,trials_real.thisRepN,trials_real.thisTrialN,trials_real.thisN,trials_real.thisIndex,trials_real.ran,key_resp_2.keys
0,0,0,0,1,Figures/blank_image.png,Figures/blank_image.png,Figures/blank_image.png,Figures/blank_image.png,"The experiment you will perform is a variation on a task known as the ""beads task"".",ew20,,2021-09-22_20h11.00.223,beads_social_exp,2021.2.0,Win32,60.18295619,,,,,,,,,,,,,,,,,,,,,,,,,,,,,,,,,,,,,,,,
0,1,1,1,1,Figures/all_jars.png,Figures/blank_image.png,Figures/blank_image.png,Figures/blank_image.png,"In this variant of the experiment, there are 9 jars containing various proportions of red and green beads.",ew20,,2021-09-22_20h11.00.223,beads_social_exp,2021.2.0,Win32,60.18295619,,,,,,,,,,,,,,,,,,,,,,,,,,,,,,,,,,,,,,,,
0,2,2,2,1,Figures/jar_covered.png,Figures/blank_image.png,Figures/blank_image.png,Figures/blank_image.png,"One jar is chosen at random and covered, hiding the beads.",ew20,,2021-09-22_20h11.00.223,beads_social_exp,2021.2.0,Win32,60.18295619,,,,,,,,,,,,,,,,,,,,,,,,,,,,,,,,,,,,,,,,
0,3,3,3,1,Figures/jar_covered.png,Figures/sample_1_red.png,Figures/blank_image.png,Figures/hand_front.png,8 beads are randomly drawn from this jar.,ew20,,2021-09-22_20h11.00.223,beads_social_exp,2021.2.0,Win32,60.18295619,,,,,,,,,,,,,,,,,,,,,,,,,,,,,,,,,,,,,,,,
0,4,4,4,1,Figures/jar_covered.png,Figures/sample_1_red.png,Figures/random_bead.png,Figures/hand_front.png,A new bead will then be drawn from the jar.,ew20,,2021-09-22_20h11.00.223,beads_social_exp,2021.2.0,Win32,60.18295619,,,,,,,,,,,,,,,,,,,,,,,,,,,,,,,,,,,,,,,,
0,5,5,5,1,Figures/jar_covered.png,Figures/sample_1_red.png,Figures/random_bead.png,Figures/hand_front.png,Your task is to guess what colour (red or green) this next bead will be.,ew20,,2021-09-22_20h11.00.223,beads_social_exp,2021.2.0,Win32,60.18295619,,,,,,,,,,,,,,,,,,,,,,,,,,,,,,,,,,,,,,,,
0,6,6,6,1,Figures/blank_image.png,Figures/blank_image.png,Figures/blank_image.png,Figures/blank_image.png,You will perform this experiment with four other (simulated) participants.,ew20,,2021-09-22_20h11.00.223,beads_social_exp,2021.2.0,Win32,60.18295619,,,,,,,,,,,,,,,,,,,,,,,,,,,,,,,,,,,,,,,,
0,7,7,7,1,Figures/blank_image.png,Figures/blank_image.png,Figures/blank_image.png,Figures/blank_image.png,"You will be able to see their guess (but not their beads), as well as see how confident they are in their guess.",ew20,,2021-09-22_20h11.00.223,beads_social_exp,2021.2.0,Win32,60.18295619,,,,,,,,,,,,,,,,,,,,,,,,,,,,,,,,,,,,,,,,
0,8,8,8,1,Figures/blank_image.png,Figures/blank_image.png,Figures/blank_image.png,Figures/blank_image.png,"Unlike the original ""beads task"", you therefore have access to additional social information.",ew20,,2021-09-22_20h11.00.223,beads_social_exp,2021.2.0,Win32,60.18295619,,,,,,,,,,,,,,,,,,,,,,,,,,,,,,,,,,,,,,,,
0,9,9,9,1,Figures/blank_image.png,Figures/blank_image.png,Figures/blank_image.png,Figures/blank_image.png,We will perform 5 practice trials without the other participants to help you understand how the task works.,ew20,,2021-09-22_20h11.00.223,beads_social_exp,2021.2.0,Win32,60.18295619,,,,,,,,,,,,,,,,,,,,,,,,,,,,,,,,,,,,,,,,
,,,,,,,,,,ew20,,2021-09-22_20h11.00.223,beads_social_exp,2021.2.0,Win32,60.18295619,left,6.3814,right,7.3063,0,0,0,4,1,Figures/sample_6_red.png,,,,,,,,,,,,,,,,,,,,,,,,,,,,,,
,,,,,,,,,,ew20,,2021-09-22_20h11.00.223,beads_social_exp,2021.2.0,Win32,60.18295619,left,7.1832,left,5.2566,0,1,1,3,1,Figures/sample_5_red.png,,,,,,,,,,,,,,,,,,,,,,,,,,,,,,
,,,,,,,,,,ew20,,2021-09-22_20h11.00.223,beads_social_exp,2021.2.0,Win32,60.18295619,right,0.7493,left,9.08,0,2,2,0,1,Figures/sample_2_red.png,,,,,,,,,,,,,,,,,,,,,,,,,,,,,,
,,,,,,,,,,ew20,,2021-09-22_20h11.00.223,beads_social_exp,2021.2.0,Win32,60.18295619,right,4.2434,left,0.8058,0,3,3,2,1,Figures/sample_4_red.png,,,,,,,,,,,,,,,,,,,,,,,,,,,,,,
,,,,,,,,,,ew20,,2021-09-22_20h11.00.223,beads_social_exp,2021.2.0,Win32,60.18295619,right,5.2083,left,0.8537,0,4,4,1,1,Figures/sample_3_red.png,,,,,,,,,,,,,,,,,,,,,,,,,,,,,,
,,,,,Figures/blank_image.png,,,,"You will now perform the same experiment, but you will do so alongside four other (simulated) agents.",ew20,,2021-09-22_20h11.00.223,beads_social_exp,2021.2.0,Win32,60.18295619,,,,,,,,,,,0,0,0,0,1,,,,,,,,,,,,,,,,,,,,,,,,,
,,,,,Figures/blank_image.png,,,,"As before, each agent will draw 8 random beads, guess the colour of the next bead and state their confidence, then replace all the beads back into the jar.",ew20,,2021-09-22_20h11.00.223,beads_social_exp,2021.2.0,Win32,60.18295619,,,,,,,,,,,0,1,1,1,1,,,,,,,,,,,,,,,,,,,,,,,,,
,,,,,Figures/blank_image.png,,,,"All the agents, along with yourself, will be drawing beads from the same jar.",ew20,,2021-09-22_20h11.00.223,beads_social_exp,2021.2.0,Win32,60.18295619,,,,,,,,,,,0,2,2,2,1,,,,,,,,,,,,,,,,,,,,,,,,,
,,,,,Figures/blank_image.png,,,,Though do note that you will all replace the beads back into the jar before the next participant/agent has their turn.,ew20,,2021-09-22_20h11.00.223,beads_social_exp,2021.2.0,Win32,60.18295619,,,,,,,,,,,0,3,3,3,1,,,,,,,,,,,,,,,,,,,,,,,,,
,,,,,Figures/possible_agent_responses.png,,,,Their choice of colour and confidence will be shown using the above four images.,ew20,,2021-09-22_20h11.00.223,beads_social_exp,2021.2.0,Win32,60.18295619,,,,,,,,,,,0,4,4,4,1,,,,,,,,,,,,,,,,,,,,,,,,,
,,,,,Figures/possible_agent_responses.png,,,,You can therefore use the agents decisions to inform your own decision about the colour of the next bead.,ew20,,2021-09-22_20h11.00.223,beads_social_exp,2021.2.0,Win32,60.18295619,,,,,,,,,,,0,5,5,5,1,,,,,,,,,,,,,,,,,,,,,,,,,
,,,,,Figures/possible_agent_responses.png,,,,You will not need to state your confidence in this part of the experiment. You only need to guess the colour of the next bead.,ew20,,2021-09-22_20h11.00.223,beads_social_exp,2021.2.0,Win32,60.18295619,,,,,,,,,,,0,6,6,6,1,,,,,,,,,,,,,,,,,,,,,,,,,
,,,,,Figures/possible_agent_responses.png,,,,We will begin 10 practice trials.,ew20,,2021-09-22_20h11.00.223,beads_social_exp,2021.2.0,Win32,60.18295619,,,,,,,,,,,0,7,7,7,1,,,,,,,,,,,,,,,,,,,,,,,,,
,,,,,,,,,,ew20,,2021-09-22_20h11.00.223,beads_social_exp,2021.2.0,Win32,60.18295619,,,,,,,,,,,,,,,,right,12.7118,0,0,0,3,1,Figures/confident_green.png,Figures/faces/1.png,Figures/confident_green.png,Figures/faces/11.png,Figures/confident_green.png,Figures/faces/12.png,Figures/unconfident_red.png,Figures/faces/2.png,,,,,,,,,,
,,,,,,,,,,ew20,,2021-09-22_20h11.00.223,beads_social_exp,2021.2.0,Win32,60.18295619,,,,,,,,,,,,,,,,left,1.6288,0,1,1,1,1,Figures/confident_green.png,Figures/faces/5.png,Figures/confident_green.png,Figures/faces/15.png,Figures/confident_green.png,Figures/faces/16.png,Figures/confident_green.png,Figures/faces/6.png,,,,,,,,,,
,,,,,,,,,,ew20,,2021-09-22_20h11.00.223,beads_social_exp,2021.2.0,Win32,60.18295619,,,,,,,,,,,,,,,,left,0.8734,0,2,2,7,1,Figures/confident_green.png,Figures/faces/10.png,Figures/confident_green.png,Figures/faces/20.png,Figures/unconfident_red.png,Figures/faces/11.png,Figures/unconfident_red.png,Figures/faces/1.png,,,,,,,,,,
,,,,,,,,,,ew20,,2021-09-22_20h11.00.223,beads_social_exp,2021.2.0,Win32,60.18295619,,,,,,,,,,,,,,,,left,1.4262,0,3,3,6,1,Figures/confident_green.png,Figures/faces/9.png,Figures/confident_green.png,Figures/faces/19.png,Figures/unconfident_red.png,Figures/faces/20.png,Figures/unconfident_red.png,Figures/faces/10.png,,,,,,,,,,
,,,,,,,,,,ew20,,2021-09-22_20h11.00.223,beads_social_exp,2021.2.0,Win32,60.18295619,,,,,,,,,,,,,,,,right,1.1724,0,4,4,5,1,Figures/confident_green.png,Figures/faces/8.png,Figures/confident_green.png,Figures/faces/18.png,Figures/unconfident_red.png,Figures/faces/19.png,Figures/unconfident_red.png,Figures/faces/9.png,,,,,,,,,,
,,,,,,,,,,ew20,,2021-09-22_20h11.00.223,beads_social_exp,2021.2.0,Win32,60.18295619,,,,,,,,,,,,,,,,right,2.6327,0,5,5,0,1,Figures/confident_green.png,Figures/faces/1.png,Figures/confident_green.png,Figures/faces/11.png,Figures/confident_green.png,Figures/faces/12.png,Figures/confident_green.png,Figures/faces/2.png,,,,,,,,,,
,,,,,,,,,,ew20,,2021-09-22_20h11.00.223,beads_social_exp,2021.2.0,Win32,60.18295619,,,,,,,,,,,,,,,,right,0.808,0,6,6,4,1,Figures/confident_green.png,Figures/faces/7.png,Figures/confident_green.png,Figures/faces/17.png,Figures/unconfident_red.png,Figures/faces/18.png,Figures/unconfident_red.png,Figures/faces/8.png,,,,,,,,,,
,,,,,,,,,,ew20,,2021-09-22_20h11.00.223,beads_social_exp,2021.2.0,Win32,60.18295619,,,,,,,,,,,,,,,,left,10.6397,0,7,7,8,1,Figures/confident_red.png,Figures/faces/6.png,Figures/confident_red.png,Figures/faces/16.png,Figures/confident_red.png,Figures/faces/17.png,Figures/unconfident_green.png,Figures/faces/7.png,,,,,,,,,,
,,,,,,,,,,ew20,,2021-09-22_20h11.00.223,beads_social_exp,2021.2.0,Win32,60.18295619,,,,,,,,,,,,,,,,right,1.0551,0,8,8,2,1,Figures/confident_green.png,Figures/faces/9.png,Figures/confident_green.png,Figures/faces/19.png,Figures/confident_green.png,Figures/faces/20.png,Figures/unconfident_red.png,Figures/faces/10.png,,,,,,,,,,
,,,,,,,,,,ew20,,2021-09-22_20h11.00.223,beads_social_exp,2021.2.0,Win32,60.18295619,,,,,,,,,,,,,,,,left,1.1232,0,9,9,9,1,Figures/confident_red.png,Figures/faces/5.png,Figures/confident_red.png,Figures/faces/15.png,Figures/confident_red.png,Figures/faces/16.png,Figures/confident_red.png,Figures/faces/6.png,,,,,,,,,,
,,,,,,,,,,ew20,,2021-09-22_20h11.00.223,beads_social_exp,2021.2.0,Win32,60.18295619,,,,,,,,,,,,,,,,,,,,,,,Figures/confident_red.png,Figures/faces/3.png,Figures/confident_red.png,Figures/faces/13.png,Figures/confident_red.png,Figures/faces/14.png,Figures/confident_red.png,Figures/faces/4.png,space,8.5497,left,1.075,0,0,0,32,1,
,,,,,,,,,,ew20,,2021-09-22_20h11.00.223,beads_social_exp,2021.2.0,Win32,60.18295619,,,,,,,,,,,,,,,,,,,,,,,Figures/confident_red.png,Figures/faces/6.png,Figures/confident_red.png,Figures/faces/16.png,Figures/confident_red.png,Figures/faces/17.png,Figures/unconfident_green.png,Figures/faces/7.png,,,left,0.9421,0,1,1,25,1,
,,,,,,,,,,ew20,,2021-09-22_20h11.00.223,beads_social_exp,2021.2.0,Win32,60.18295619,,,,,,,,,,,,,,,,,,,,,,,Figures/confident_green.png,Figures/faces/8.png,Figures/confident_green.png,Figures/faces/18.png,Figures/unconfident_red.png,Figures/faces/19.png,Figures/unconfident_red.png,Figures/faces/9.png,,,right,0.8997,0,2,2,17,1,
,,,,,,,,,,ew20,,2021-09-22_20h11.00.223,beads_social_exp,2021.2.0,Win32,60.18295619,,,,,,,,,,,,,,,,,,,,,,,Figures/confident_green.png,Figures/faces/2.png,Figures/confident_green.png,Figures/faces/12.png,Figures/confident_green.png,Figures/faces/13.png,Figures/unconfident_red.png,Figures/faces/3.png,,,left,1.0661,0,3,3,11,1,
,,,,,,,,,,ew20,,2021-09-22_20h11.00.223,beads_social_exp,2021.2.0,Win32,60.18295619,,,,,,,,,,,,,,,,,,,,,,,Figures/confident_red.png,Figures/faces/10.png,Figures/confident_red.png,Figures/faces/20.png,Figures/confident_red.png,Figures/faces/11.png,Figures/confident_red.png,Figures/faces/1.png,,,right,0.7216,0,4,4,29,1,
,,,,,,,,,,ew20,,2021-09-22_20h11.00.223,beads_social_exp,2021.2.0,Win32,60.18295619,,,,,,,,,,,,,,,,,,,,,,,Figures/confident_red.png,Figures/faces/9.png,Figures/confident_red.png,Figures/faces/19.png,Figures/confident_red.png,Figures/faces/20.png,Figures/confident_red.png,Figures/faces/10.png,,,right,0.7431,0,5,5,28,1,
,,,,,,,,,,ew20,,2021-09-22_20h11.00.223,beads_social_exp,2021.2.0,Win32,60.18295619,,,,,,,,,,,,,,,,,,,,,,,Figures/confident_green.png,Figures/faces/4.png,Figures/confident_green.png,Figures/faces/14.png,Figures/confident_green.png,Figures/faces/15.png,Figures/unconfident_red.png,Figures/faces/5.png,,,left,1.1506,0,6,6,13,1,
,,,,,,,,,,ew20,,2021-09-22_20h11.00.223,beads_social_exp,2021.2.0,Win32,60.18295619,,,,,,,,,,,,,,,,,,,,,,,Figures/confident_green.png,Figures/faces/9.png,Figures/confident_green.png,Figures/faces/19.png,Figures/unconfident_red.png,Figures/faces/20.png,Figures/unconfident_red.png,Figures/faces/10.png,,,left,1.7661,0,7,7,18,1,
,,,,,,,,,,ew20,,2021-09-22_20h11.00.223,beads_social_exp,2021.2.0,Win32,60.18295619,,,,,,,,,,,,,,,,,,,,,,,Figures/confident_red.png,Figures/faces/2.png,Figures/confident_red.png,Figures/faces/12.png,Figures/confident_red.png,Figures/faces/13.png,Figures/confident_red.png,Figures/faces/3.png,,,right,1.9201,0,8,8,31,1,
,,,,,,,,,,ew20,,2021-09-22_20h11.00.223,beads_social_exp,2021.2.0,Win32,60.18295619,,,,,,,,,,,,,,,,,,,,,,,Figures/confident_green.png,Figures/faces/7.png,Figures/confident_green.png,Figures/faces/17.png,Figures/confident_green.png,Figures/faces/18.png,Figures/confident_green.png,Figures/faces/8.png,,,left,0.8156,0,9,9,6,1,
,,,,,,,,,,ew20,,2021-09-22_20h11.00.223,beads_social_exp,2021.2.0,Win32,60.18295619,,,,,,,,,,,,,,,,,,,,,,,Figures/confident_red.png,Figures/faces/5.png,Figures/confident_red.png,Figures/faces/15.png,Figures/confident_red.png,Figures/faces/16.png,Figures/confident_red.png,Figures/faces/6.png,,,left,14.5909,0,10,10,34,1,
,,,,,,,,,,ew20,,2021-09-22_20h11.00.223,beads_social_exp,2021.2.0,Win32,60.18295619,,,,,,,,,,,,,,,,,,,,,,,Figures/confident_green.png,Figures/faces/5.png,Figures/confident_green.png,Figures/faces/15.png,Figures/unconfident_red.png,Figures/faces/16.png,Figures/unconfident_red.png,Figures/faces/6.png,,,right,0.1596,0,11,11,14,1,
,,,,,,,,,,ew20,,2021-09-22_20h11.00.223,beads_social_exp,2021.2.0,Win32,60.18295619,,,,,,,,,,,,,,,,,,,,,,,Figures/confident_green.png,Figures/faces/2.png,Figures/confident_green.png,Figures/faces/12.png,Figures/confident_green.png,Figures/faces/13.png,Figures/confident_green.png,Figures/faces/3.png,,,right,0.4268,0,12,12,1,1,
,,,,,,,,,,ew20,,2021-09-22_20h11.00.223,beads_social_exp,2021.2.0,Win32,60.18295619,,,,,,,,,,,,,,,,,,,,,,,Figures/confident_green.png,Figures/faces/10.png,Figures/confident_green.png,Figures/faces/20.png,Figures/unconfident_red.png,Figures/faces/11.png,Figures/unconfident_red.png,Figures/faces/1.png,,,left,1.425,0,13,13,19,1,
,,,,,,,,,,ew20,,2021-09-22_20h11.00.223,beads_social_exp,2021.2.0,Win32,60.18295619,,,,,,,,,,,,,,,,,,,,,,,Figures/confident_red.png,Figures/faces/3.png,Figures/confident_red.png,Figures/faces/13.png,Figures/confident_red.png,Figures/faces/14.png,Figures/unconfident_green.png,Figures/faces/4.png,,,right,0.8063,0,14,14,22,1,
,,,,,,,,,,ew20,,2021-09-22_20h11.00.223,beads_social_exp,2021.2.0,Win32,60.18295619,,,,,,,,,,,,,,,,,,,,,,,Figures/confident_red.png,Figures/faces/7.png,Figures/confident_red.png,Figures/faces/17.png,Figures/confident_red.png,Figures/faces/18.png,Figures/unconfident_green.png,Figures/faces/8.png,,,left,2.8587,0,15,15,26,1,
,,,,,,,,,,ew20,,2021-09-22_20h11.00.223,beads_social_exp,2021.2.0,Win32,60.18295619,,,,,,,,,,,,,,,,,,,,,,,Figures/confident_green.png,Figures/faces/7.png,Figures/confident_green.png,Figures/faces/17.png,Figures/unconfident_red.png,Figures/faces/18.png,Figures/unconfident_red.png,Figures/faces/8.png,,,right,0.5022,0,16,16,16,1,
,,,,,,,,,,ew20,,2021-09-22_20h11.00.223,beads_social_exp,2021.2.0,Win32,60.18295619,,,,,,,,,,,,,,,,,,,,,,,Figures/confident_red.png,Figures/faces/4.png,Figures/confident_red.png,Figures/faces/14.png,Figures/confident_red.png,Figures/faces/15.png,Figures/confident_red.png,Figures/faces/5.png,,,left,0.5273,0,17,17,33,1,
,,,,,,,,,,ew20,,2021-09-22_20h11.00.223,beads_social_exp,2021.2.0,Win32,60.18295619,,,,,,,,,,,,,,,,,,,,,,,Figures/confident_red.png,Figures/faces/2.png,Figures/confident_red.png,Figures/faces/12.png,Figures/confident_red.png,Figures/faces/13.png,Figures/unconfident_green.png,Figures/faces/3.png,,,right,0.4357,0,18,18,21,1,
,,,,,,,,,,ew20,,2021-09-22_20h11.00.223,beads_social_exp,2021.2.0,Win32,60.18295619,,,,,,,,,,,,,,,,,,,,,,,Figures/confident_green.png,Figures/faces/3.png,Figures/confident_green.png,Figures/faces/13.png,Figures/confident_green.png,Figures/faces/14.png,Figures/confident_green.png,Figures/faces/4.png,,,right,0.5657,0,19,19,2,1,
,,,,,,,,,,ew20,,2021-09-22_20h11.00.223,beads_social_exp,2021.2.0,Win32,60.18295619,,,,,,,,,,,,,,,,,,,,,,,Figures/confident_red.png,Figures/faces/4.png,Figures/confident_red.png,Figures/faces/14.png,Figures/confident_red.png,Figures/faces/15.png,Figures/unconfident_green.png,Figures/faces/5.png,,,right,0.4096,0,20,20,23,1,
,,,,,,,,,,ew20,,2021-09-22_20h11.00.223,beads_social_exp,2021.2.0,Win32,60.18295619,,,,,,,,,,,,,,,,,,,,,,,Figures/confident_green.png,Figures/faces/8.png,Figures/confident_green.png,Figures/faces/18.png,Figures/confident_green.png,Figures/faces/19.png,Figures/unconfident_red.png,Figures/faces/9.png,,,right,0.1957,0,21,21,7,1,
,,,,,,,,,,ew20,,2021-09-22_20h11.00.223,beads_social_exp,2021.2.0,Win32,60.18295619,,,,,,,,,,,,,,,,,,,,,,,Figures/confident_green.png,Figures/faces/5.png,Figures/confident_green.png,Figures/faces/15.png,Figures/confident_green.png,Figures/faces/16.png,Figures/confident_green.png,Figures/faces/6.png,,,left,1.151,0,22,22,4,1,
,,,,,,,,,,ew20,,2021-09-22_20h11.00.223,beads_social_exp,2021.2.0,Win32,60.18295619,,,,,,,,,,,,,,,,,,,,,,,Figures/confident_green.png,Figures/faces/4.png,Figures/confident_green.png,Figures/faces/14.png,Figures/confident_green.png,Figures/faces/15.png,Figures/confident_green.png,Figures/faces/5.png,,,right,1.1513,0,23,23,3,1,
,,,,,,,,,,ew20,,2021-09-22_20h11.00.223,beads_social_exp,2021.2.0,Win32,60.18295619,,,,,,,,,,,,,,,,,,,,,,,Figures/confident_green.png,Figures/faces/10.png,Figures/confident_green.png,Figures/faces/20.png,Figures/confident_green.png,Figures/faces/11.png,Figures/unconfident_red.png,Figures/faces/1.png,,,right,8.4785,0,24,24,9,1,
,,,,,,,,,,ew20,,2021-09-22_20h11.00.223,beads_social_exp,2021.2.0,Win32,60.18295619,,,,,,,,,,,,,,,,,,,,,,,Figures/confident_red.png,Figures/faces/1.png,Figures/confident_red.png,Figures/faces/11.png,Figures/confident_red.png,Figures/faces/12.png,Figures/confident_red.png,Figures/faces/2.png,,,right,0.9133,0,25,25,30,1,
,,,,,,,,,,ew20,,2021-09-22_20h11.00.223,beads_social_exp,2021.2.0,Win32,60.18295619,,,,,,,,,,,,,,,,,,,,,,,Figures/confident_green.png,Figures/faces/1.png,Figures/confident_green.png,Figures/faces/11.png,Figures/unconfident_red.png,Figures/faces/12.png,Figures/unconfident_red.png,Figures/faces/2.png,,,left,0.7456,0,26,26,20,1,
,,,,,,,,,,ew20,,2021-09-22_20h11.00.223,beads_social_exp,2021.2.0,Win32,60.18295619,,,,,,,,,,,,,,,,,,,,,,,Figures/confident_red.png,Figures/faces/8.png,Figures/confident_red.png,Figures/faces/18.png,Figures/confident_red.png,Figures/faces/19.png,Figures/unconfident_green.png,Figures/faces/9.png,,,left,0.5968,0,27,27,27,1,
,,,,,,,,,,ew20,,2021-09-22_20h11.00.223,beads_social_exp,2021.2.0,Win32,60.18295619,,,,,,,,,,,,,,,,,,,,,,,Figures/confident_green.png,Figures/faces/6.png,Figures/confident_green.png,Figures/faces/16.png,Figures/unconfident_red.png,Figures/faces/17.png,Figures/unconfident_red.png,Figures/faces/7.png,,,right,19.9778,0,28,28,15,1,
,,,,,,,,,,ew20,,2021-09-22_20h11.00.223,beads_social_exp,2021.2.0,Win32,60.18295619,,,,,,,,,,,,,,,,,,,,,,,Figures/confident_green.png,Figures/faces/9.png,Figures/confident_green.png,Figures/faces/19.png,Figures/confident_green.png,Figures/faces/20.png,Figures/unconfident_red.png,Figures/faces/10.png,,,right,0.4063,0,29,29,8,1,
,,,,,,,,,,ew20,,2021-09-22_20h11.00.223,beads_social_exp,2021.2.0,Win32,60.18295619,,,,,,,,,,,,,,,,,,,,,,,Figures/confident_green.png,Figures/faces/1.png,Figures/confident_green.png,Figures/faces/11.png,Figures/confident_green.png,Figures/faces/12.png,Figures/unconfident_red.png,Figures/faces/2.png,,,left,1.4982,0,30,30,10,1,
,,,,,,,,,,ew20,,2021-09-22_20h11.00.223,beads_social_exp,2021.2.0,Win32,60.18295619,,,,,,,,,,,,,,,,,,,,,,,Figures/confident_green.png,Figures/faces/1.png,Figures/confident_green.png,Figures/faces/11.png,Figures/confident_green.png,Figures/faces/12.png,Figures/confident_green.png,Figures/faces/2.png,,,right,0.4432,0,31,31,0,1,
,,,,,,,,,,ew20,,2021-09-22_20h11.00.223,beads_social_exp,2021.2.0,Win32,60.18295619,,,,,,,,,,,,,,,,,,,,,,,Figures/confident_red.png,Figures/faces/5.png,Figures/confident_red.png,Figures/faces/15.png,Figures/confident_red.png,Figures/faces/16.png,Figures/unconfident_green.png,Figures/faces/6.png,,,left,1.0906,0,32,32,24,1,
,,,,,,,,,,ew20,,2021-09-22_20h11.00.223,beads_social_exp,2021.2.0,Win32,60.18295619,,,,,,,,,,,,,,,,,,,,,,,Figures/confident_green.png,Figures/faces/3.png,Figures/confident_green.png,Figures/faces/13.png,Figures/confident_green.png,Figures/faces/14.png,Figures/unconfident_red.png,Figures/faces/4.png,,,left,1.2081,0,33,33,12,1,
,,,,,,,,,,ew20,,2021-09-22_20h11.00.223,beads_social_exp,2021.2.0,Win32,60.18295619,,,,,,,,,,,,,,,,,,,,,,,Figures/confident_green.png,Figures/faces/6.png,Figures/confident_green.png,Figures/faces/16.png,Figures/confident_green.png,Figures/faces/17.png,Figures/confident_green.png,Figures/faces/7.png,,,left,0.9689,0,34,34,5,1,
,,,,,,,,,,ew20,,2021-09-22_20h11.00.223,beads_social_exp,2021.2.0,Win32,60.18295619,,,,,,,,,,,,,,,,,,,,,,,Figures/confident_green.png,Figures/faces/2.png,Figures/confident_green.png,Figures/faces/12.png,Figures/confident_green.png,Figures/faces/13.png,Figures/unconfident_red.png,Figures/faces/3.png,,,left,2.523,1,0,35,11,1,
,,,,,,,,,,ew20,,2021-09-22_20h11.00.223,beads_social_exp,2021.2.0,Win32,60.18295619,,,,,,,,,,,,,,,,,,,,,,,Figures/confident_red.png,Figures/faces/1.png,Figures/confident_red.png,Figures/faces/11.png,Figures/confident_red.png,Figures/faces/12.png,Figures/confident_red.png,Figures/faces/2.png,,,right,1.6984,1,1,36,30,1,
,,,,,,,,,,ew20,,2021-09-22_20h11.00.223,beads_social_exp,2021.2.0,Win32,60.18295619,,,,,,,,,,,,,,,,,,,,,,,Figures/confident_red.png,Figures/faces/5.png,Figures/confident_red.png,Figures/faces/15.png,Figures/confident_red.png,Figures/faces/16.png,Figures/confident_red.png,Figures/faces/6.png,,,left,0.5581,1,2,37,34,1,
,,,,,,,,,,ew20,,2021-09-22_20h11.00.223,beads_social_exp,2021.2.0,Win32,60.18295619,,,,,,,,,,,,,,,,,,,,,,,Figures/confident_red.png,Figures/faces/9.png,Figures/confident_red.png,Figures/faces/19.png,Figures/confident_red.png,Figures/faces/20.png,Figures/confident_red.png,Figures/faces/10.png,,,right,0.9088,1,3,38,28,1,
,,,,,,,,,,ew20,,2021-09-22_20h11.00.223,beads_social_exp,2021.2.0,Win32,60.18295619,,,,,,,,,,,,,,,,,,,,,,,Figures/confident_green.png,Figures/faces/3.png,Figures/confident_green.png,Figures/faces/13.png,Figures/confident_green.png,Figures/faces/14.png,Figures/confident_green.png,Figures/faces/4.png,,,right,0.7102,1,4,39,2,1,
,,,,,,,,,,ew20,,2021-09-22_20h11.00.223,beads_social_exp,2021.2.0,Win32,60.18295619,,,,,,,,,,,,,,,,,,,,,,,Figures/confident_green.png,Figures/faces/5.png,Figures/confident_green.png,Figures/faces/15.png,Figures/unconfident_red.png,Figures/faces/16.png,Figures/unconfident_red.png,Figures/faces/6.png,,,right,0.6298,1,5,40,14,1,
,,,,,,,,,,ew20,,2021-09-22_20h11.00.223,beads_social_exp,2021.2.0,Win32,60.18295619,,,,,,,,,,,,,,,,,,,,,,,Figures/confident_green.png,Figures/faces/10.png,Figures/confident_green.png,Figures/faces/20.png,Figures/confident_green.png,Figures/faces/11.png,Figures/unconfident_red.png,Figures/faces/1.png,,,right,0.5958,1,6,41,9,1,
,,,,,,,,,,ew20,,2021-09-22_20h11.00.223,beads_social_exp,2021.2.0,Win32,60.18295619,,,,,,,,,,,,,,,,,,,,,,,Figures/confident_green.png,Figures/faces/6.png,Figures/confident_green.png,Figures/faces/16.png,Figures/unconfident_red.png,Figures/faces/17.png,Figures/unconfident_red.png,Figures/faces/7.png,,,right,0.3741,1,7,42,15,1,
,,,,,,,,,,ew20,,2021-09-22_20h11.00.223,beads_social_exp,2021.2.0,Win32,60.18295619,,,,,,,,,,,,,,,,,,,,,,,Figures/confident_green.png,Figures/faces/8.png,Figures/confident_green.png,Figures/faces/18.png,Figures/confident_green.png,Figures/faces/19.png,Figures/unconfident_red.png,Figures/faces/9.png,,,right,0.1326,1,8,43,7,1,
,,,,,,,,,,ew20,,2021-09-22_20h11.00.223,beads_social_exp,2021.2.0,Win32,60.18295619,,,,,,,,,,,,,,,,,,,,,,,Figures/confident_green.png,Figures/faces/3.png,Figures/confident_green.png,Figures/faces/13.png,Figures/confident_green.png,Figures/faces/14.png,Figures/unconfident_red.png,Figures/faces/4.png,,,left,1.186,1,9,44,12,1,
,,,,,,,,,,ew20,,2021-09-22_20h11.00.223,beads_social_exp,2021.2.0,Win32,60.18295619,,,,,,,,,,,,,,,,,,,,,,,Figures/confident_green.png,Figures/faces/4.png,Figures/confident_green.png,Figures/faces/14.png,Figures/confident_green.png,Figures/faces/15.png,Figures/confident_green.png,Figures/faces/5.png,,,right,32.8476,1,10,45,3,1,
,,,,,,,,,,ew20,,2021-09-22_20h11.00.223,beads_social_exp,2021.2.0,Win32,60.18295619,,,,,,,,,,,,,,,,,,,,,,,Figures/confident_red.png,Figures/faces/3.png,Figures/confident_red.png,Figures/faces/13.png,Figures/confident_red.png,Figures/faces/14.png,Figures/unconfident_green.png,Figures/faces/4.png,,,right,0.5005,1,11,46,22,1,
,,,,,,,,,,ew20,,2021-09-22_20h11.00.223,beads_social_exp,2021.2.0,Win32,60.18295619,,,,,,,,,,,,,,,,,,,,,,,Figures/confident_green.png,Figures/faces/6.png,Figures/confident_green.png,Figures/faces/16.png,Figures/confident_green.png,Figures/faces/17.png,Figures/confident_green.png,Figures/faces/7.png,,,left,0.473,1,12,47,5,1,
,,,,,,,,,,ew20,,2021-09-22_20h11.00.223,beads_social_exp,2021.2.0,Win32,60.18295619,,,,,,,,,,,,,,,,,,,,,,,Figures/confident_red.png,Figures/faces/4.png,Figures/confident_red.png,Figures/faces/14.png,Figures/confident_red.png,Figures/faces/15.png,Figures/confident_red.png,Figures/faces/5.png,,,left,0.4802,1,13,48,33,1,
,,,,,,,,,,ew20,,2021-09-22_20h11.00.223,beads_social_exp,2021.2.0,Win32,60.18295619,,,,,,,,,,,,,,,,,,,,,,,Figures/confident_green.png,Figures/faces/10.png,Figures/confident_green.png,Figures/faces/20.png,Figures/unconfident_red.png,Figures/faces/11.png,Figures/unconfident_red.png,Figures/faces/1.png,,,left,0.3792,1,14,49,19,1,
,,,,,,,,,,ew20,,2021-09-22_20h11.00.223,beads_social_exp,2021.2.0,Win32,60.18295619,,,,,,,,,,,,,,,,,,,,,,,Figures/confident_red.png,Figures/faces/2.png,Figures/confident_red.png,Figures/faces/12.png,Figures/confident_red.png,Figures/faces/13.png,Figures/confident_red.png,Figures/faces/3.png,,,right,6.177,1,15,50,31,1,
,,,,,,,,,,ew20,,2021-09-22_20h11.00.223,beads_social_exp,2021.2.0,Win32,60.18295619,,,,,,,,,,,,,,,,,,,,,,,Figures/confident_red.png,Figures/faces/6.png,Figures/confident_red.png,Figures/faces/16.png,Figures/confident_red.png,Figures/faces/17.png,Figures/unconfident_green.png,Figures/faces/7.png,,,left,1.2176,1,16,51,25,1,
,,,,,,,,,,ew20,,2021-09-22_20h11.00.223,beads_social_exp,2021.2.0,Win32,60.18295619,,,,,,,,,,,,,,,,,,,,,,,Figures/confident_green.png,Figures/faces/1.png,Figures/confident_green.png,Figures/faces/11.png,Figures/confident_green.png,Figures/faces/12.png,Figures/confident_green.png,Figures/faces/2.png,,,right,0.5315,1,17,52,0,1,
,,,,,,,,,,ew20,,2021-09-22_20h11.00.223,beads_social_exp,2021.2.0,Win32,60.18295619,,,,,,,,,,,,,,,,,,,,,,,Figures/confident_red.png,Figures/faces/3.png,Figures/confident_red.png,Figures/faces/13.png,Figures/confident_red.png,Figures/faces/14.png,Figures/confident_red.png,Figures/faces/4.png,,,left,7.0366,1,18,53,32,1,
,,,,,,,,,,ew20,,2021-09-22_20h11.00.223,beads_social_exp,2021.2.0,Win32,60.18295619,,,,,,,,,,,,,,,,,,,,,,,Figures/confident_red.png,Figures/faces/2.png,Figures/confident_red.png,Figures/faces/12.png,Figures/confident_red.png,Figures/faces/13.png,Figures/unconfident_green.png,Figures/faces/3.png,,,right,0.5892,1,19,54,21,1,
,,,,,,,,,,ew20,,2021-09-22_20h11.00.223,beads_social_exp,2021.2.0,Win32,60.18295619,,,,,,,,,,,,,,,,,,,,,,,Figures/confident_green.png,Figures/faces/7.png,Figures/confident_green.png,Figures/faces/17.png,Figures/unconfident_red.png,Figures/faces/18.png,Figures/unconfident_red.png,Figures/faces/8.png,,,right,1.2419,1,20,55,16,1,
,,,,,,,,,,ew20,,2021-09-22_20h11.00.223,beads_social_exp,2021.2.0,Win32,60.18295619,,,,,,,,,,,,,,,,,,,,,,,Figures/confident_green.png,Figures/faces/8.png,Figures/confident_green.png,Figures/faces/18.png,Figures/unconfident_red.png,Figures/faces/19.png,Figures/unconfident_red.png,Figures/faces/9.png,,,right,3.7339,1,21,56,17,1,
,,,,,,,,,,ew20,,2021-09-22_20h11.00.223,beads_social_exp,2021.2.0,Win32,60.18295619,,,,,,,,,,,,,,,,,,,,,,,Figures/confident_red.png,Figures/faces/5.png,Figures/confident_red.png,Figures/faces/15.png,Figures/confident_red.png,Figures/faces/16.png,Figures/unconfident_green.png,Figures/faces/6.png,,,right,2.7166,1,22,57,24,1,
,,,,,,,,,,ew20,,2021-09-22_20h11.00.223,beads_social_exp,2021.2.0,Win32,60.18295619,,,,,,,,,,,,,,,,,,,,,,,Figures/confident_green.png,Figures/faces/2.png,Figures/confident_green.png,Figures/faces/12.png,Figures/confident_green.png,Figures/faces/13.png,Figures/confident_green.png,Figures/faces/3.png,,,right,0.474,1,23,58,1,1,
,,,,,,,,,,ew20,,2021-09-22_20h11.00.223,beads_social_exp,2021.2.0,Win32,60.18295619,,,,,,,,,,,,,,,,,,,,,,,Figures/confident_red.png,Figures/faces/10.png,Figures/confident_red.png,Figures/faces/20.png,Figures/confident_red.png,Figures/faces/11.png,Figures/confident_red.png,Figures/faces/1.png,,,right,5.0587,1,24,59,29,1,
,,,,,,,,,,ew20,,2021-09-22_20h11.00.223,beads_social_exp,2021.2.0,Win32,60.18295619,,,,,,,,,,,,,,,,,,,,,,,Figures/confident_green.png,Figures/faces/1.png,Figures/confident_green.png,Figures/faces/11.png,Figures/confident_green.png,Figures/faces/12.png,Figures/unconfident_red.png,Figures/faces/2.png,,,left,12.0706,1,25,60,10,1,
,,,,,,,,,,ew20,,2021-09-22_20h11.00.223,beads_social_exp,2021.2.0,Win32,60.18295619,,,,,,,,,,,,,,,,,,,,,,,Figures/confident_green.png,Figures/faces/4.png,Figures/confident_green.png,Figures/faces/14.png,Figures/confident_green.png,Figures/faces/15.png,Figures/unconfident_red.png,Figures/faces/5.png,,,left,1.6953,1,26,61,13,1,
,,,,,,,,,,ew20,,2021-09-22_20h11.00.223,beads_social_exp,2021.2.0,Win32,60.18295619,,,,,,,,,,,,,,,,,,,,,,,Figures/confident_red.png,Figures/faces/7.png,Figures/confident_red.png,Figures/faces/17.png,Figures/confident_red.png,Figures/faces/18.png,Figures/unconfident_green.png,Figures/faces/8.png,,,left,0.4657,1,27,62,26,1,
,,,,,,,,,,ew20,,2021-09-22_20h11.00.223,beads_social_exp,2021.2.0,Win32,60.18295619,,,,,,,,,,,,,,,,,,,,,,,Figures/confident_green.png,Figures/faces/1.png,Figures/confident_green.png,Figures/faces/11.png,Figures/unconfident_red.png,Figures/faces/12.png,Figures/unconfident_red.png,Figures/faces/2.png,,,left,0.3129,1,28,63,20,1,
,,,,,,,,,,ew20,,2021-09-22_20h11.00.223,beads_social_exp,2021.2.0,Win32,60.18295619,,,,,,,,,,,,,,,,,,,,,,,Figures/confident_green.png,Figures/faces/5.png,Figures/confident_green.png,Figures/faces/15.png,Figures/confident_green.png,Figures/faces/16.png,Figures/confident_green.png,Figures/faces/6.png,,,left,2.4783,1,29,64,4,1,
,,,,,,,,,,ew20,,2021-09-22_20h11.00.223,beads_social_exp,2021.2.0,Win32,60.18295619,,,,,,,,,,,,,,,,,,,,,,,Figures/confident_green.png,Figures/faces/9.png,Figures/confident_green.png,Figures/faces/19.png,Figures/confident_green.png,Figures/faces/20.png,Figures/unconfident_red.png,Figures/faces/10.png,,,right,0.5028,1,30,65,8,1,
,,,,,,,,,,ew20,,2021-09-22_20h11.00.223,beads_social_exp,2021.2.0,Win32,60.18295619,,,,,,,,,,,,,,,,,,,,,,,Figures/confident_green.png,Figures/faces/9.png,Figures/confident_green.png,Figures/faces/19.png,Figures/unconfident_red.png,Figures/faces/20.png,Figures/unconfident_red.png,Figures/faces/10.png,,,left,1.8487,1,31,66,18,1,
,,,,,,,,,,ew20,,2021-09-22_20h11.00.223,beads_social_exp,2021.2.0,Win32,60.18295619,,,,,,,,,,,,,,,,,,,,,,,Figures/confident_green.png,Figures/faces/7.png,Figures/confident_green.png,Figures/faces/17.png,Figures/confident_green.png,Figures/faces/18.png,Figures/confident_green.png,Figures/faces/8.png,,,left,0.7174,1,32,67,6,1,
,,,,,,,,,,ew20,,2021-09-22_20h11.00.223,beads_social_exp,2021.2.0,Win32,60.18295619,,,,,,,,,,,,,,,,,,,,,,,Figures/confident_red.png,Figures/faces/4.png,Figures/confident_red.png,Figures/faces/14.png,Figures/confident_red.png,Figures/faces/15.png,Figures/unconfident_green.png,Figures/faces/5.png,,,right,0.8078,1,33,68,23,1,
,,,,,,,,,,ew20,,2021-09-22_20h11.00.223,beads_social_exp,2021.2.0,Win32,60.18295619,,,,,,,,,,,,,,,,,,,,,,,Figures/confident_red.png,Figures/faces/8.png,Figures/confident_red.png,Figures/faces/18.png,Figures/confident_red.png,Figures/faces/19.png,Figures/unconfident_green.png,Figures/faces/9.png,,,left,0.5115,1,34,69,27,1,
,,,,,,,,,,ew20,,2021-09-22_20h11.00.223,beads_social_exp,2021.2.0,Win32,60.18295619,,,,,,,,,,,,,,,,,,,,,,,Figures/confident_green.png,Figures/faces/8.png,Figures/confident_green.png,Figures/faces/18.png,Figures/confident_green.png,Figures/faces/19.png,Figures/unconfident_red.png,Figures/faces/9.png,,,right,1.0745,2,0,70,7,1,
,,,,,,,,,,ew20,,2021-09-22_20h11.00.223,beads_social_exp,2021.2.0,Win32,60.18295619,,,,,,,,,,,,,,,,,,,,,,,Figures/confident_green.png,Figures/faces/4.png,Figures/confident_green.png,Figures/faces/14.png,Figures/confident_green.png,Figures/faces/15.png,Figures/unconfident_red.png,Figures/faces/5.png,,,left,0.4126,2,1,71,13,1,
,,,,,,,,,,ew20,,2021-09-22_20h11.00.223,beads_social_exp,2021.2.0,Win32,60.18295619,,,,,,,,,,,,,,,,,,,,,,,Figures/confident_green.png,Figures/faces/3.png,Figures/confident_green.png,Figures/faces/13.png,Figures/confident_green.png,Figures/faces/14.png,Figures/confident_green.png,Figures/faces/4.png,,,right,0.6777,2,2,72,2,1,
,,,,,,,,,,ew20,,2021-09-22_20h11.00.223,beads_social_exp,2021.2.0,Win32,60.18295619,,,,,,,,,,,,,,,,,,,,,,,Figures/confident_green.png,Figures/faces/7.png,Figures/confident_green.png,Figures/faces/17.png,Figures/unconfident_red.png,Figures/faces/18.png,Figures/unconfident_red.png,Figures/faces/8.png,,,right,1.0244,2,3,73,16,1,
,,,,,,,,,,ew20,,2021-09-22_20h11.00.223,beads_social_exp,2021.2.0,Win32,60.18295619,,,,,,,,,,,,,,,,,,,,,,,Figures/confident_green.png,Figures/faces/2.png,Figures/confident_green.png,Figures/faces/12.png,Figures/confident_green.png,Figures/faces/13.png,Figures/unconfident_red.png,Figures/faces/3.png,,,left,0.9213,2,4,74,11,1,
,,,,,,,,,,ew20,,2021-09-22_20h11.00.223,beads_social_exp,2021.2.0,Win32,60.18295619,,,,,,,,,,,,,,,,,,,,,,,Figures/confident_green.png,Figures/faces/10.png,Figures/confident_green.png,Figures/faces/20.png,Figures/confident_green.png,Figures/faces/11.png,Figures/unconfident_red.png,Figures/faces/1.png,,,right,0.5976,2,5,75,9,1,
,,,,,,,,,,ew20,,2021-09-22_20h11.00.223,beads_social_exp,2021.2.0,Win32,60.18295619,,,,,,,,,,,,,,,,,,,,,,,Figures/confident_green.png,Figures/faces/6.png,Figures/confident_green.png,Figures/faces/16.png,Figures/unconfident_red.png,Figures/faces/17.png,Figures/unconfident_red.png,Figures/faces/7.png,,,right,0.4702,2,6,76,15,1,
,,,,,,,,,,ew20,,2021-09-22_20h11.00.223,beads_social_exp,2021.2.0,Win32,60.18295619,,,,,,,,,,,,,,,,,,,,,,,Figures/confident_red.png,Figures/faces/3.png,Figures/confident_red.png,Figures/faces/13.png,Figures/confident_red.png,Figures/faces/14.png,Figures/unconfident_green.png,Figures/faces/4.png,,,right,0.4626,2,7,77,22,1,
,,,,,,,,,,ew20,,2021-09-22_20h11.00.223,beads_social_exp,2021.2.0,Win32,60.18295619,,,,,,,,,,,,,,,,,,,,,,,Figures/confident_green.png,Figures/faces/8.png,Figures/confident_green.png,Figures/faces/18.png,Figures/unconfident_red.png,Figures/faces/19.png,Figures/unconfident_red.png,Figures/faces/9.png,,,left,4.2068,2,8,78,17,1,
,,,,,,,,,,ew20,,2021-09-22_20h11.00.223,beads_social_exp,2021.2.0,Win32,60.18295619,,,,,,,,,,,,,,,,,,,,,,,Figures/confident_red.png,Figures/faces/8.png,Figures/confident_red.png,Figures/faces/18.png,Figures/confident_red.png,Figures/faces/19.png,Figures/unconfident_green.png,Figures/faces/9.png,,,left,0.4088,2,9,79,27,1,
,,,,,,,,,,ew20,,2021-09-22_20h11.00.223,beads_social_exp,2021.2.0,Win32,60.18295619,,,,,,,,,,,,,,,,,,,,,,,Figures/confident_green.png,Figures/faces/1.png,Figures/confident_green.png,Figures/faces/11.png,Figures/confident_green.png,Figures/faces/12.png,Figures/unconfident_red.png,Figures/faces/2.png,,,left,2.543,2,10,80,10,1,
,,,,,,,,,,ew20,,2021-09-22_20h11.00.223,beads_social_exp,2021.2.0,Win32,60.18295619,,,,,,,,,,,,,,,,,,,,,,,Figures/confident_red.png,Figures/faces/9.png,Figures/confident_red.png,Figures/faces/19.png,Figures/confident_red.png,Figures/faces/20.png,Figures/confident_red.png,Figures/faces/10.png,,,right,1.1113,2,11,81,28,1,
,,,,,,,,,,ew20,,2021-09-22_20h11.00.223,beads_social_exp,2021.2.0,Win32,60.18295619,,,,,,,,,,,,,,,,,,,,,,,Figures/confident_green.png,Figures/faces/7.png,Figures/confident_green.png,Figures/faces/17.png,Figures/confident_green.png,Figures/faces/18.png,Figures/confident_green.png,Figures/faces/8.png,,,left,0.5002,2,12,82,6,1,
,,,,,,,,,,ew20,,2021-09-22_20h11.00.223,beads_social_exp,2021.2.0,Win32,60.18295619,,,,,,,,,,,,,,,,,,,,,,,Figures/confident_red.png,Figures/faces/7.png,Figures/confident_red.png,Figures/faces/17.png,Figures/confident_red.png,Figures/faces/18.png,Figures/unconfident_green.png,Figures/faces/8.png,,,left,0.7208,2,13,83,26,1,
,,,,,,,,,,ew20,,2021-09-22_20h11.00.223,beads_social_exp,2021.2.0,Win32,60.18295619,,,,,,,,,,,,,,,,,,,,,,,Figures/confident_red.png,Figures/faces/6.png,Figures/confident_red.png,Figures/faces/16.png,Figures/confident_red.png,Figures/faces/17.png,Figures/unconfident_green.png,Figures/faces/7.png,,,left,1.2868,2,14,84,25,1,
,,,,,,,,,,ew20,,2021-09-22_20h11.00.223,beads_social_exp,2021.2.0,Win32,60.18295619,,,,,,,,,,,,,,,,,,,,,,,Figures/confident_red.png,Figures/faces/4.png,Figures/confident_red.png,Figures/faces/14.png,Figures/confident_red.png,Figures/faces/15.png,Figures/unconfident_green.png,Figures/faces/5.png,,,right,0.4794,2,15,85,23,1,
,,,,,,,,,,ew20,,2021-09-22_20h11.00.223,beads_social_exp,2021.2.0,Win32,60.18295619,,,,,,,,,,,,,,,,,,,,,,,Figures/confident_green.png,Figures/faces/2.png,Figures/confident_green.png,Figures/faces/12.png,Figures/confident_green.png,Figures/faces/13.png,Figures/confident_green.png,Figures/faces/3.png,,,right,0.4178,2,16,86,1,1,
,,,,,,,,,,ew20,,2021-09-22_20h11.00.223,beads_social_exp,2021.2.0,Win32,60.18295619,,,,,,,,,,,,,,,,,,,,,,,Figures/confident_green.png,Figures/faces/5.png,Figures/confident_green.png,Figures/faces/15.png,Figures/confident_green.png,Figures/faces/16.png,Figures/confident_green.png,Figures/faces/6.png,,,right,1.7435,2,17,87,4,1,
,,,,,,,,,,ew20,,2021-09-22_20h11.00.223,beads_social_exp,2021.2.0,Win32,60.18295619,,,,,,,,,,,,,,,,,,,,,,,Figures/confident_red.png,Figures/faces/1.png,Figures/confident_red.png,Figures/faces/11.png,Figures/confident_red.png,Figures/faces/12.png,Figures/confident_red.png,Figures/faces/2.png,,,right,0.6633,2,18,88,30,1,
,,,,,,,,,,ew20,,2021-09-22_20h11.00.223,beads_social_exp,2021.2.0,Win32,60.18295619,,,,,,,,,,,,,,,,,,,,,,,Figures/confident_red.png,Figures/faces/5.png,Figures/confident_red.png,Figures/faces/15.png,Figures/confident_red.png,Figures/faces/16.png,Figures/confident_red.png,Figures/faces/6.png,,,left,1.1842,2,19,89,34,1,
,,,,,,,,,,ew20,,2021-09-22_20h11.00.223,beads_social_exp,2021.2.0,Win32,60.18295619,,,,,,,,,,,,,,,,,,,,,,,Figures/confident_green.png,Figures/faces/5.png,Figures/confident_green.png,Figures/faces/15.png,Figures/unconfident_red.png,Figures/faces/16.png,Figures/unconfident_red.png,Figures/faces/6.png,,,right,0.3506,2,20,90,14,1,
,,,,,,,,,,ew20,,2021-09-22_20h11.00.223,beads_social_exp,2021.2.0,Win32,60.18295619,,,,,,,,,,,,,,,,,,,,,,,Figures/confident_green.png,Figures/faces/6.png,Figures/confident_green.png,Figures/faces/16.png,Figures/confident_green.png,Figures/faces/17.png,Figures/confident_green.png,Figures/faces/7.png,,,left,0.3037,2,21,91,5,1,
,,,,,,,,,,ew20,,2021-09-22_20h11.00.223,beads_social_exp,2021.2.0,Win32,60.18295619,,,,,,,,,,,,,,,,,,,,,,,Figures/confident_red.png,Figures/faces/3.png,Figures/confident_red.png,Figures/faces/13.png,Figures/confident_red.png,Figures/faces/14.png,Figures/confident_red.png,Figures/faces/4.png,,,left,0.8738,2,22,92,32,1,
,,,,,,,,,,ew20,,2021-09-22_20h11.00.223,beads_social_exp,2021.2.0,Win32,60.18295619,,,,,,,,,,,,,,,,,,,,,,,Figures/confident_green.png,Figures/faces/1.png,Figures/confident_green.png,Figures/faces/11.png,Figures/confident_green.png,Figures/faces/12.png,Figures/confident_green.png,Figures/faces/2.png,,,right,0.4732,2,23,93,0,1,
,,,,,,,,,,ew20,,2021-09-22_20h11.00.223,beads_social_exp,2021.2.0,Win32,60.18295619,,,,,,,,,,,,,,,,,,,,,,,Figures/confident_green.png,Figures/faces/10.png,Figures/confident_green.png,Figures/faces/20.png,Figures/unconfident_red.png,Figures/faces/11.png,Figures/unconfident_red.png,Figures/faces/1.png,,,left,0.5718,2,24,94,19,1,
,,,,,,,,,,ew20,,2021-09-22_20h11.00.223,beads_social_exp,2021.2.0,Win32,60.18295619,,,,,,,,,,,,,,,,,,,,,,,Figures/confident_green.png,Figures/faces/4.png,Figures/confident_green.png,Figures/faces/14.png,Figures/confident_green.png,Figures/faces/15.png,Figures/confident_green.png,Figures/faces/5.png,,,left,2.1576,2,25,95,3,1,
,,,,,,,,,,ew20,,2021-09-22_20h11.00.223,beads_social_exp,2021.2.0,Win32,60.18295619,,,,,,,,,,,,,,,,,,,,,,,Figures/confident_green.png,Figures/faces/9.png,Figures/confident_green.png,Figures/faces/19.png,Figures/confident_green.png,Figures/faces/20.png,Figures/unconfident_red.png,Figures/faces/10.png,,,right,0.4961,2,26,96,8,1,
,,,,,,,,,,ew20,,2021-09-22_20h11.00.223,beads_social_exp,2021.2.0,Win32,60.18295619,,,,,,,,,,,,,,,,,,,,,,,Figures/confident_red.png,Figures/faces/5.png,Figures/confident_red.png,Figures/faces/15.png,Figures/confident_red.png,Figures/faces/16.png,Figures/unconfident_green.png,Figures/faces/6.png,,,right,1.7945,2,27,97,24,1,
,,,,,,,,,,ew20,,2021-09-22_20h11.00.223,beads_social_exp,2021.2.0,Win32,60.18295619,,,,,,,,,,,,,,,,,,,,,,,Figures/confident_red.png,Figures/faces/2.png,Figures/confident_red.png,Figures/faces/12.png,Figures/confident_red.png,Figures/faces/13.png,Figures/confident_red.png,Figures/faces/3.png,,,right,1.6117,2,28,98,31,1,
,,,,,,,,,,ew20,,2021-09-22_20h11.00.223,beads_social_exp,2021.2.0,Win32,60.18295619,,,,,,,,,,,,,,,,,,,,,,,Figures/confident_green.png,Figures/faces/3.png,Figures/confident_green.png,Figures/faces/13.png,Figures/confident_green.png,Figures/faces/14.png,Figures/unconfident_red.png,Figures/faces/4.png,,,left,0.4775,2,29,99,12,1,
,,,,,,,,,,ew20,,2021-09-22_20h11.00.223,beads_social_exp,2021.2.0,Win32,60.18295619,,,,,,,,,,,,,,,,,,,,,,,Figures/confident_green.png,Figures/faces/9.png,Figures/confident_green.png,Figures/faces/19.png,Figures/unconfident_red.png,Figures/faces/20.png,Figures/unconfident_red.png,Figures/faces/10.png,,,left,1.4073,2,30,100,18,1,
,,,,,,,,,,ew20,,2021-09-22_20h11.00.223,beads_social_exp,2021.2.0,Win32,60.18295619,,,,,,,,,,,,,,,,,,,,,,,Figures/confident_red.png,Figures/faces/4.png,Figures/confident_red.png,Figures/faces/14.png,Figures/confident_red.png,Figures/faces/15.png,Figures/confident_red.png,Figures/faces/5.png,,,left,0.3837,2,31,101,33,1,
,,,,,,,,,,ew20,,2021-09-22_20h11.00.223,beads_social_exp,2021.2.0,Win32,60.18295619,,,,,,,,,,,,,,,,,,,,,,,Figures/confident_red.png,Figures/faces/2.png,Figures/confident_red.png,Figures/faces/12.png,Figures/confident_red.png,Figures/faces/13.png,Figures/unconfident_green.png,Figures/faces/3.png,,,right,0.5089,2,32,102,21,1,
,,,,,,,,,,ew20,,2021-09-22_20h11.00.223,beads_social_exp,2021.2.0,Win32,60.18295619,,,,,,,,,,,,,,,,,,,,,,,Figures/confident_green.png,Figures/faces/1.png,Figures/confident_green.png,Figures/faces/11.png,Figures/unconfident_red.png,Figures/faces/12.png,Figures/unconfident_red.png,Figures/faces/2.png,,,left,0.541,2,33,103,20,1,
,,,,,,,,,,ew20,,2021-09-22_20h11.00.223,beads_social_exp,2021.2.0,Win32,60.18295619,,,,,,,,,,,,,,,,,,,,,,,Figures/confident_red.png,Figures/faces/10.png,Figures/confident_red.png,Figures/faces/20.png,Figures/confident_red.png,Figures/faces/11.png,Figures/confident_red.png,Figures/faces/1.png,,,right,0.5365,2,34,104,29,1,
,,,,,,,,,,ew20,,2021-09-22_20h11.00.223,beads_social_exp,2021.2.0,Win32,60.18295619,,,,,,,,,,,,,,,,,,,,,,,,,,,,,,,,,,,,,,,,
