intro_loop.thisRepN,intro_loop.thisTrialN,intro_loop.thisN,intro_loop.thisIndex,intro_loop.ran,Figure,Figure2,Figure3,Figure4,Text,participant,session,date,expName,psychopyVersion,OS,frameRate,key_resp.keys,key_resp.rt,confidence_response.keys,confidence_response.rt,practice_trials.thisRepN,practice_trials.thisTrialN,practice_trials.thisN,practice_trials.thisIndex,practice_trials.ran,beads_image,intro_agents.thisRepN,intro_agents.thisTrialN,intro_agents.thisN,intro_agents.thisIndex,intro_agents.ran,key_resp1.keys,key_resp1.rt,trials.thisRepN,trials.thisTrialN,trials.thisN,trials.thisIndex,trials.ran,agent1,agent1_face,agent2,agent2_face,agent3,agent3_face,agent4,agent4_face,key_resp_4.keys,key_resp_4.rt,participant_decision.keys,participant_decision.rt,trials_real.thisRepN,trials_real.thisTrialN,trials_real.thisN,trials_real.thisIndex,trials_real.ran,key_resp_2.keys
0,0,0,0,1,Figures/blank_image.png,Figures/blank_image.png,Figures/blank_image.png,Figures/blank_image.png,"The experiment you will perform is a variation on a task known as the ""beads task"".",SK05,,2021-09-23_12h48.38.495,beads_social_exp,2021.2.0,Win32,59.88023952,,,,,,,,,,,,,,,,,,,,,,,,,,,,,,,,,,,,,,,,
0,1,1,1,1,Figures/all_jars.png,Figures/blank_image.png,Figures/blank_image.png,Figures/blank_image.png,"In this variant of the experiment, there are 9 jars containing various proportions of red and green beads.",SK05,,2021-09-23_12h48.38.495,beads_social_exp,2021.2.0,Win32,59.88023952,,,,,,,,,,,,,,,,,,,,,,,,,,,,,,,,,,,,,,,,
0,2,2,2,1,Figures/jar_covered.png,Figures/blank_image.png,Figures/blank_image.png,Figures/blank_image.png,"One jar is chosen at random and covered, hiding the beads.",SK05,,2021-09-23_12h48.38.495,beads_social_exp,2021.2.0,Win32,59.88023952,,,,,,,,,,,,,,,,,,,,,,,,,,,,,,,,,,,,,,,,
0,3,3,3,1,Figures/jar_covered.png,Figures/sample_1_red.png,Figures/blank_image.png,Figures/hand_front.png,8 beads are randomly drawn from this jar.,SK05,,2021-09-23_12h48.38.495,beads_social_exp,2021.2.0,Win32,59.88023952,,,,,,,,,,,,,,,,,,,,,,,,,,,,,,,,,,,,,,,,
0,4,4,4,1,Figures/jar_covered.png,Figures/sample_1_red.png,Figures/random_bead.png,Figures/hand_front.png,A new bead will then be drawn from the jar.,SK05,,2021-09-23_12h48.38.495,beads_social_exp,2021.2.0,Win32,59.88023952,,,,,,,,,,,,,,,,,,,,,,,,,,,,,,,,,,,,,,,,
0,5,5,5,1,Figures/jar_covered.png,Figures/sample_1_red.png,Figures/random_bead.png,Figures/hand_front.png,Your task is to guess what colour (red or green) this next bead will be.,SK05,,2021-09-23_12h48.38.495,beads_social_exp,2021.2.0,Win32,59.88023952,,,,,,,,,,,,,,,,,,,,,,,,,,,,,,,,,,,,,,,,
0,6,6,6,1,Figures/blank_image.png,Figures/blank_image.png,Figures/blank_image.png,Figures/blank_image.png,You will perform this experiment with four other (simulated) participants.,SK05,,2021-09-23_12h48.38.495,beads_social_exp,2021.2.0,Win32,59.88023952,,,,,,,,,,,,,,,,,,,,,,,,,,,,,,,,,,,,,,,,
0,7,7,7,1,Figures/blank_image.png,Figures/blank_image.png,Figures/blank_image.png,Figures/blank_image.png,"You will be able to see their guess (but not their beads), as well as see how confident they are in their guess.",SK05,,2021-09-23_12h48.38.495,beads_social_exp,2021.2.0,Win32,59.88023952,,,,,,,,,,,,,,,,,,,,,,,,,,,,,,,,,,,,,,,,
0,8,8,8,1,Figures/blank_image.png,Figures/blank_image.png,Figures/blank_image.png,Figures/blank_image.png,"Unlike the original ""beads task"", you therefore have access to additional social information.",SK05,,2021-09-23_12h48.38.495,beads_social_exp,2021.2.0,Win32,59.88023952,,,,,,,,,,,,,,,,,,,,,,,,,,,,,,,,,,,,,,,,
0,9,9,9,1,Figures/blank_image.png,Figures/blank_image.png,Figures/blank_image.png,Figures/blank_image.png,We will perform 5 practice trials without the other participants to help you understand how the task works.,SK05,,2021-09-23_12h48.38.495,beads_social_exp,2021.2.0,Win32,59.88023952,,,,,,,,,,,,,,,,,,,,,,,,,,,,,,,,,,,,,,,,
,,,,,,,,,,SK05,,2021-09-23_12h48.38.495,beads_social_exp,2021.2.0,Win32,59.88023952,right,2.5575,left,4.6825,0,0,0,0,1,Figures/sample_2_red.png,,,,,,,,,,,,,,,,,,,,,,,,,,,,,,
,,,,,,,,,,SK05,,2021-09-23_12h48.38.495,beads_social_exp,2021.2.0,Win32,59.88023952,right,1.4995,right,1.3894,0,1,1,1,1,Figures/sample_3_red.png,,,,,,,,,,,,,,,,,,,,,,,,,,,,,,
,,,,,,,,,,SK05,,2021-09-23_12h48.38.495,beads_social_exp,2021.2.0,Win32,59.88023952,left,1.1769,right,1.7296,0,2,2,3,1,Figures/sample_5_red.png,,,,,,,,,,,,,,,,,,,,,,,,,,,,,,
,,,,,,,,,,SK05,,2021-09-23_12h48.38.495,beads_social_exp,2021.2.0,Win32,59.88023952,left,0.8552,left,1.0857,0,3,3,4,1,Figures/sample_6_red.png,,,,,,,,,,,,,,,,,,,,,,,,,,,,,,
,,,,,,,,,,SK05,,2021-09-23_12h48.38.495,beads_social_exp,2021.2.0,Win32,59.88023952,right,0.5679,right,1.0659,0,4,4,2,1,Figures/sample_4_red.png,,,,,,,,,,,,,,,,,,,,,,,,,,,,,,
,,,,,Figures/blank_image.png,,,,"You will now perform the same experiment, but you will do so alongside four other (simulated) agents.",SK05,,2021-09-23_12h48.38.495,beads_social_exp,2021.2.0,Win32,59.88023952,,,,,,,,,,,0,0,0,0,1,,,,,,,,,,,,,,,,,,,,,,,,,
,,,,,Figures/blank_image.png,,,,"As before, each agent will draw 8 random beads, guess the colour of the next bead and state their confidence, then replace all the beads back into the jar.",SK05,,2021-09-23_12h48.38.495,beads_social_exp,2021.2.0,Win32,59.88023952,,,,,,,,,,,0,1,1,1,1,,,,,,,,,,,,,,,,,,,,,,,,,
,,,,,Figures/blank_image.png,,,,"All the agents, along with yourself, will be drawing beads from the same jar.",SK05,,2021-09-23_12h48.38.495,beads_social_exp,2021.2.0,Win32,59.88023952,,,,,,,,,,,0,2,2,2,1,,,,,,,,,,,,,,,,,,,,,,,,,
,,,,,Figures/blank_image.png,,,,Though do note that you will all replace the beads back into the jar before the next participant/agent has their turn.,SK05,,2021-09-23_12h48.38.495,beads_social_exp,2021.2.0,Win32,59.88023952,,,,,,,,,,,0,3,3,3,1,,,,,,,,,,,,,,,,,,,,,,,,,
,,,,,Figures/possible_agent_responses.png,,,,Their choice of colour and confidence will be shown using the above four images.,SK05,,2021-09-23_12h48.38.495,beads_social_exp,2021.2.0,Win32,59.88023952,,,,,,,,,,,0,4,4,4,1,,,,,,,,,,,,,,,,,,,,,,,,,
,,,,,Figures/possible_agent_responses.png,,,,You can therefore use the agents decisions to inform your own decision about the colour of the next bead.,SK05,,2021-09-23_12h48.38.495,beads_social_exp,2021.2.0,Win32,59.88023952,,,,,,,,,,,0,5,5,5,1,,,,,,,,,,,,,,,,,,,,,,,,,
,,,,,Figures/possible_agent_responses.png,,,,You will not need to state your confidence in this part of the experiment. You only need to guess the colour of the next bead.,SK05,,2021-09-23_12h48.38.495,beads_social_exp,2021.2.0,Win32,59.88023952,,,,,,,,,,,0,6,6,6,1,,,,,,,,,,,,,,,,,,,,,,,,,
,,,,,Figures/possible_agent_responses.png,,,,We will begin 10 practice trials.,SK05,,2021-09-23_12h48.38.495,beads_social_exp,2021.2.0,Win32,59.88023952,,,,,,,,,,,0,7,7,7,1,,,,,,,,,,,,,,,,,,,,,,,,,
,,,,,,,,,,SK05,,2021-09-23_12h48.38.495,beads_social_exp,2021.2.0,Win32,59.88023952,,,,,,,,,,,,,,,,right,2.1833,0,0,0,2,1,Figures/confident_green.png,Figures/faces/9.png,Figures/confident_green.png,Figures/faces/19.png,Figures/confident_green.png,Figures/faces/20.png,Figures/unconfident_red.png,Figures/faces/10.png,,,,,,,,,,
,,,,,,,,,,SK05,,2021-09-23_12h48.38.495,beads_social_exp,2021.2.0,Win32,59.88023952,,,,,,,,,,,,,,,,left,3.0909,0,1,1,8,1,Figures/confident_red.png,Figures/faces/6.png,Figures/confident_red.png,Figures/faces/16.png,Figures/confident_red.png,Figures/faces/17.png,Figures/unconfident_green.png,Figures/faces/7.png,,,,,,,,,,
,,,,,,,,,,SK05,,2021-09-23_12h48.38.495,beads_social_exp,2021.2.0,Win32,59.88023952,,,,,,,,,,,,,,,,right,15.191,0,2,2,6,1,Figures/confident_green.png,Figures/faces/9.png,Figures/confident_green.png,Figures/faces/19.png,Figures/unconfident_red.png,Figures/faces/20.png,Figures/unconfident_red.png,Figures/faces/10.png,,,,,,,,,,
,,,,,,,,,,SK05,,2021-09-23_12h48.38.495,beads_social_exp,2021.2.0,Win32,59.88023952,,,,,,,,,,,,,,,,right,1.667,0,3,3,1,1,Figures/confident_green.png,Figures/faces/5.png,Figures/confident_green.png,Figures/faces/15.png,Figures/confident_green.png,Figures/faces/16.png,Figures/confident_green.png,Figures/faces/6.png,,,,,,,,,,
,,,,,,,,,,SK05,,2021-09-23_12h48.38.495,beads_social_exp,2021.2.0,Win32,59.88023952,,,,,,,,,,,,,,,,right,1.1754,0,4,4,4,1,Figures/confident_green.png,Figures/faces/7.png,Figures/confident_green.png,Figures/faces/17.png,Figures/unconfident_red.png,Figures/faces/18.png,Figures/unconfident_red.png,Figures/faces/8.png,,,,,,,,,,
,,,,,,,,,,SK05,,2021-09-23_12h48.38.495,beads_social_exp,2021.2.0,Win32,59.88023952,,,,,,,,,,,,,,,,right,0.8085,0,5,5,5,1,Figures/confident_green.png,Figures/faces/8.png,Figures/confident_green.png,Figures/faces/18.png,Figures/unconfident_red.png,Figures/faces/19.png,Figures/unconfident_red.png,Figures/faces/9.png,,,,,,,,,,
,,,,,,,,,,SK05,,2021-09-23_12h48.38.495,beads_social_exp,2021.2.0,Win32,59.88023952,,,,,,,,,,,,,,,,left,1.7852,0,6,6,7,1,Figures/confident_green.png,Figures/faces/10.png,Figures/confident_green.png,Figures/faces/20.png,Figures/unconfident_red.png,Figures/faces/11.png,Figures/unconfident_red.png,Figures/faces/1.png,,,,,,,,,,
,,,,,,,,,,SK05,,2021-09-23_12h48.38.495,beads_social_exp,2021.2.0,Win32,59.88023952,,,,,,,,,,,,,,,,left,0.856,0,7,7,9,1,Figures/confident_red.png,Figures/faces/5.png,Figures/confident_red.png,Figures/faces/15.png,Figures/confident_red.png,Figures/faces/16.png,Figures/confident_red.png,Figures/faces/6.png,,,,,,,,,,
,,,,,,,,,,SK05,,2021-09-23_12h48.38.495,beads_social_exp,2021.2.0,Win32,59.88023952,,,,,,,,,,,,,,,,right,0.7168,0,8,8,3,1,Figures/confident_green.png,Figures/faces/1.png,Figures/confident_green.png,Figures/faces/11.png,Figures/confident_green.png,Figures/faces/12.png,Figures/unconfident_red.png,Figures/faces/2.png,,,,,,,,,,
,,,,,,,,,,SK05,,2021-09-23_12h48.38.495,beads_social_exp,2021.2.0,Win32,59.88023952,,,,,,,,,,,,,,,,right,0.6175,0,9,9,0,1,Figures/confident_green.png,Figures/faces/1.png,Figures/confident_green.png,Figures/faces/11.png,Figures/confident_green.png,Figures/faces/12.png,Figures/confident_green.png,Figures/faces/2.png,,,,,,,,,,
,,,,,,,,,,SK05,,2021-09-23_12h48.38.495,beads_social_exp,2021.2.0,Win32,59.88023952,,,,,,,,,,,,,,,,,,,,,,,Figures/confident_green.png,Figures/faces/10.png,Figures/confident_green.png,Figures/faces/20.png,Figures/unconfident_red.png,Figures/faces/11.png,Figures/unconfident_red.png,Figures/faces/1.png,space,3.6371,left,3.3977,0,0,0,19,1,
,,,,,,,,,,SK05,,2021-09-23_12h48.38.495,beads_social_exp,2021.2.0,Win32,59.88023952,,,,,,,,,,,,,,,,,,,,,,,Figures/confident_green.png,Figures/faces/8.png,Figures/confident_green.png,Figures/faces/18.png,Figures/confident_green.png,Figures/faces/19.png,Figures/unconfident_red.png,Figures/faces/9.png,,,right,0.7437,0,1,1,7,1,
,,,,,,,,,,SK05,,2021-09-23_12h48.38.495,beads_social_exp,2021.2.0,Win32,59.88023952,,,,,,,,,,,,,,,,,,,,,,,Figures/confident_red.png,Figures/faces/7.png,Figures/confident_red.png,Figures/faces/17.png,Figures/confident_red.png,Figures/faces/18.png,Figures/unconfident_green.png,Figures/faces/8.png,,,left,0.7345,0,2,2,26,1,
,,,,,,,,,,SK05,,2021-09-23_12h48.38.495,beads_social_exp,2021.2.0,Win32,59.88023952,,,,,,,,,,,,,,,,,,,,,,,Figures/confident_red.png,Figures/faces/1.png,Figures/confident_red.png,Figures/faces/11.png,Figures/confident_red.png,Figures/faces/12.png,Figures/confident_red.png,Figures/faces/2.png,,,left,2.788,0,3,3,30,1,
,,,,,,,,,,SK05,,2021-09-23_12h48.38.495,beads_social_exp,2021.2.0,Win32,59.88023952,,,,,,,,,,,,,,,,,,,,,,,Figures/confident_red.png,Figures/faces/4.png,Figures/confident_red.png,Figures/faces/14.png,Figures/confident_red.png,Figures/faces/15.png,Figures/unconfident_green.png,Figures/faces/5.png,,,left,4.0055,0,4,4,23,1,
,,,,,,,,,,SK05,,2021-09-23_12h48.38.495,beads_social_exp,2021.2.0,Win32,59.88023952,,,,,,,,,,,,,,,,,,,,,,,Figures/confident_red.png,Figures/faces/4.png,Figures/confident_red.png,Figures/faces/14.png,Figures/confident_red.png,Figures/faces/15.png,Figures/confident_red.png,Figures/faces/5.png,,,left,0.5731,0,5,5,33,1,
,,,,,,,,,,SK05,,2021-09-23_12h48.38.495,beads_social_exp,2021.2.0,Win32,59.88023952,,,,,,,,,,,,,,,,,,,,,,,Figures/confident_green.png,Figures/faces/10.png,Figures/confident_green.png,Figures/faces/20.png,Figures/confident_green.png,Figures/faces/11.png,Figures/unconfident_red.png,Figures/faces/1.png,,,right,0.4592,0,6,6,9,1,
,,,,,,,,,,SK05,,2021-09-23_12h48.38.495,beads_social_exp,2021.2.0,Win32,59.88023952,,,,,,,,,,,,,,,,,,,,,,,Figures/confident_green.png,Figures/faces/7.png,Figures/confident_green.png,Figures/faces/17.png,Figures/unconfident_red.png,Figures/faces/18.png,Figures/unconfident_red.png,Figures/faces/8.png,,,right,0.568,0,7,7,16,1,
,,,,,,,,,,SK05,,2021-09-23_12h48.38.495,beads_social_exp,2021.2.0,Win32,59.88023952,,,,,,,,,,,,,,,,,,,,,,,Figures/confident_green.png,Figures/faces/6.png,Figures/confident_green.png,Figures/faces/16.png,Figures/unconfident_red.png,Figures/faces/17.png,Figures/unconfident_red.png,Figures/faces/7.png,,,right,0.5724,0,8,8,15,1,
,,,,,,,,,,SK05,,2021-09-23_12h48.38.495,beads_social_exp,2021.2.0,Win32,59.88023952,,,,,,,,,,,,,,,,,,,,,,,Figures/confident_green.png,Figures/faces/6.png,Figures/confident_green.png,Figures/faces/16.png,Figures/confident_green.png,Figures/faces/17.png,Figures/confident_green.png,Figures/faces/7.png,,,right,3.9056,0,9,9,5,1,
,,,,,,,,,,SK05,,2021-09-23_12h48.38.495,beads_social_exp,2021.2.0,Win32,59.88023952,,,,,,,,,,,,,,,,,,,,,,,Figures/confident_green.png,Figures/faces/2.png,Figures/confident_green.png,Figures/faces/12.png,Figures/confident_green.png,Figures/faces/13.png,Figures/unconfident_red.png,Figures/faces/3.png,,,right,2.5437,0,10,10,11,1,
,,,,,,,,,,SK05,,2021-09-23_12h48.38.495,beads_social_exp,2021.2.0,Win32,59.88023952,,,,,,,,,,,,,,,,,,,,,,,Figures/confident_green.png,Figures/faces/9.png,Figures/confident_green.png,Figures/faces/19.png,Figures/unconfident_red.png,Figures/faces/20.png,Figures/unconfident_red.png,Figures/faces/10.png,,,right,2.4357,0,11,11,18,1,
,,,,,,,,,,SK05,,2021-09-23_12h48.38.495,beads_social_exp,2021.2.0,Win32,59.88023952,,,,,,,,,,,,,,,,,,,,,,,Figures/confident_green.png,Figures/faces/2.png,Figures/confident_green.png,Figures/faces/12.png,Figures/confident_green.png,Figures/faces/13.png,Figures/confident_green.png,Figures/faces/3.png,,,right,0.5089,0,12,12,1,1,
,,,,,,,,,,SK05,,2021-09-23_12h48.38.495,beads_social_exp,2021.2.0,Win32,59.88023952,,,,,,,,,,,,,,,,,,,,,,,Figures/confident_green.png,Figures/faces/5.png,Figures/confident_green.png,Figures/faces/15.png,Figures/unconfident_red.png,Figures/faces/16.png,Figures/unconfident_red.png,Figures/faces/6.png,,,right,0.472,0,13,13,14,1,
,,,,,,,,,,SK05,,2021-09-23_12h48.38.495,beads_social_exp,2021.2.0,Win32,59.88023952,,,,,,,,,,,,,,,,,,,,,,,Figures/confident_green.png,Figures/faces/8.png,Figures/confident_green.png,Figures/faces/18.png,Figures/unconfident_red.png,Figures/faces/19.png,Figures/unconfident_red.png,Figures/faces/9.png,,,right,0.4843,0,14,14,17,1,
,,,,,,,,,,SK05,,2021-09-23_12h48.38.495,beads_social_exp,2021.2.0,Win32,59.88023952,,,,,,,,,,,,,,,,,,,,,,,Figures/confident_red.png,Figures/faces/6.png,Figures/confident_red.png,Figures/faces/16.png,Figures/confident_red.png,Figures/faces/17.png,Figures/unconfident_green.png,Figures/faces/7.png,,,left,1.4847,0,15,15,25,1,
,,,,,,,,,,SK05,,2021-09-23_12h48.38.495,beads_social_exp,2021.2.0,Win32,59.88023952,,,,,,,,,,,,,,,,,,,,,,,Figures/confident_green.png,Figures/faces/4.png,Figures/confident_green.png,Figures/faces/14.png,Figures/confident_green.png,Figures/faces/15.png,Figures/unconfident_red.png,Figures/faces/5.png,,,left,34.8757,0,16,16,13,1,
,,,,,,,,,,SK05,,2021-09-23_12h48.38.495,beads_social_exp,2021.2.0,Win32,59.88023952,,,,,,,,,,,,,,,,,,,,,,,Figures/confident_red.png,Figures/faces/9.png,Figures/confident_red.png,Figures/faces/19.png,Figures/confident_red.png,Figures/faces/20.png,Figures/confident_red.png,Figures/faces/10.png,,,left,7.7114,0,17,17,28,1,
,,,,,,,,,,SK05,,2021-09-23_12h48.38.495,beads_social_exp,2021.2.0,Win32,59.88023952,,,,,,,,,,,,,,,,,,,,,,,Figures/confident_green.png,Figures/faces/1.png,Figures/confident_green.png,Figures/faces/11.png,Figures/confident_green.png,Figures/faces/12.png,Figures/unconfident_red.png,Figures/faces/2.png,,,right,1.5055,0,18,18,10,1,
,,,,,,,,,,SK05,,2021-09-23_12h48.38.495,beads_social_exp,2021.2.0,Win32,59.88023952,,,,,,,,,,,,,,,,,,,,,,,Figures/confident_green.png,Figures/faces/5.png,Figures/confident_green.png,Figures/faces/15.png,Figures/confident_green.png,Figures/faces/16.png,Figures/confident_green.png,Figures/faces/6.png,,,right,0.7442,0,19,19,4,1,
,,,,,,,,,,SK05,,2021-09-23_12h48.38.495,beads_social_exp,2021.2.0,Win32,59.88023952,,,,,,,,,,,,,,,,,,,,,,,Figures/confident_red.png,Figures/faces/5.png,Figures/confident_red.png,Figures/faces/15.png,Figures/confident_red.png,Figures/faces/16.png,Figures/confident_red.png,Figures/faces/6.png,,,left,0.5668,0,20,20,34,1,
,,,,,,,,,,SK05,,2021-09-23_12h48.38.495,beads_social_exp,2021.2.0,Win32,59.88023952,,,,,,,,,,,,,,,,,,,,,,,Figures/confident_green.png,Figures/faces/1.png,Figures/confident_green.png,Figures/faces/11.png,Figures/confident_green.png,Figures/faces/12.png,Figures/confident_green.png,Figures/faces/2.png,,,right,0.6671,0,21,21,0,1,
,,,,,,,,,,SK05,,2021-09-23_12h48.38.495,beads_social_exp,2021.2.0,Win32,59.88023952,,,,,,,,,,,,,,,,,,,,,,,Figures/confident_green.png,Figures/faces/4.png,Figures/confident_green.png,Figures/faces/14.png,Figures/confident_green.png,Figures/faces/15.png,Figures/confident_green.png,Figures/faces/5.png,,,right,0.7345,0,22,22,3,1,
,,,,,,,,,,SK05,,2021-09-23_12h48.38.495,beads_social_exp,2021.2.0,Win32,59.88023952,,,,,,,,,,,,,,,,,,,,,,,Figures/confident_red.png,Figures/faces/8.png,Figures/confident_red.png,Figures/faces/18.png,Figures/confident_red.png,Figures/faces/19.png,Figures/unconfident_green.png,Figures/faces/9.png,,,left,0.3391,0,23,23,27,1,
,,,,,,,,,,SK05,,2021-09-23_12h48.38.495,beads_social_exp,2021.2.0,Win32,59.88023952,,,,,,,,,,,,,,,,,,,,,,,Figures/confident_red.png,Figures/faces/3.png,Figures/confident_red.png,Figures/faces/13.png,Figures/confident_red.png,Figures/faces/14.png,Figures/confident_red.png,Figures/faces/4.png,,,left,0.9076,0,24,24,32,1,
,,,,,,,,,,SK05,,2021-09-23_12h48.38.495,beads_social_exp,2021.2.0,Win32,59.88023952,,,,,,,,,,,,,,,,,,,,,,,Figures/confident_green.png,Figures/faces/3.png,Figures/confident_green.png,Figures/faces/13.png,Figures/confident_green.png,Figures/faces/14.png,Figures/unconfident_red.png,Figures/faces/4.png,,,right,0.5347,0,25,25,12,1,
,,,,,,,,,,SK05,,2021-09-23_12h48.38.495,beads_social_exp,2021.2.0,Win32,59.88023952,,,,,,,,,,,,,,,,,,,,,,,Figures/confident_red.png,Figures/faces/2.png,Figures/confident_red.png,Figures/faces/12.png,Figures/confident_red.png,Figures/faces/13.png,Figures/unconfident_green.png,Figures/faces/3.png,,,left,4.1188,0,26,26,21,1,
,,,,,,,,,,SK05,,2021-09-23_12h48.38.495,beads_social_exp,2021.2.0,Win32,59.88023952,,,,,,,,,,,,,,,,,,,,,,,Figures/confident_red.png,Figures/faces/5.png,Figures/confident_red.png,Figures/faces/15.png,Figures/confident_red.png,Figures/faces/16.png,Figures/unconfident_green.png,Figures/faces/6.png,,,left,0.7353,0,27,27,24,1,
,,,,,,,,,,SK05,,2021-09-23_12h48.38.495,beads_social_exp,2021.2.0,Win32,59.88023952,,,,,,,,,,,,,,,,,,,,,,,Figures/confident_red.png,Figures/faces/2.png,Figures/confident_red.png,Figures/faces/12.png,Figures/confident_red.png,Figures/faces/13.png,Figures/confident_red.png,Figures/faces/3.png,,,left,0.4342,0,28,28,31,1,
,,,,,,,,,,SK05,,2021-09-23_12h48.38.495,beads_social_exp,2021.2.0,Win32,59.88023952,,,,,,,,,,,,,,,,,,,,,,,Figures/confident_green.png,Figures/faces/7.png,Figures/confident_green.png,Figures/faces/17.png,Figures/confident_green.png,Figures/faces/18.png,Figures/confident_green.png,Figures/faces/8.png,,,right,12.694,0,29,29,6,1,
,,,,,,,,,,SK05,,2021-09-23_12h48.38.495,beads_social_exp,2021.2.0,Win32,59.88023952,,,,,,,,,,,,,,,,,,,,,,,Figures/confident_red.png,Figures/faces/10.png,Figures/confident_red.png,Figures/faces/20.png,Figures/confident_red.png,Figures/faces/11.png,Figures/confident_red.png,Figures/faces/1.png,,,left,1.8409,0,30,30,29,1,
,,,,,,,,,,SK05,,2021-09-23_12h48.38.495,beads_social_exp,2021.2.0,Win32,59.88023952,,,,,,,,,,,,,,,,,,,,,,,Figures/confident_green.png,Figures/faces/3.png,Figures/confident_green.png,Figures/faces/13.png,Figures/confident_green.png,Figures/faces/14.png,Figures/confident_green.png,Figures/faces/4.png,,,right,0.4014,0,31,31,2,1,
,,,,,,,,,,SK05,,2021-09-23_12h48.38.495,beads_social_exp,2021.2.0,Win32,59.88023952,,,,,,,,,,,,,,,,,,,,,,,Figures/confident_green.png,Figures/faces/1.png,Figures/confident_green.png,Figures/faces/11.png,Figures/unconfident_red.png,Figures/faces/12.png,Figures/unconfident_red.png,Figures/faces/2.png,,,left,6.7763,0,32,32,20,1,
,,,,,,,,,,SK05,,2021-09-23_12h48.38.495,beads_social_exp,2021.2.0,Win32,59.88023952,,,,,,,,,,,,,,,,,,,,,,,Figures/confident_red.png,Figures/faces/3.png,Figures/confident_red.png,Figures/faces/13.png,Figures/confident_red.png,Figures/faces/14.png,Figures/unconfident_green.png,Figures/faces/4.png,,,left,1.4679,0,33,33,22,1,
,,,,,,,,,,SK05,,2021-09-23_12h48.38.495,beads_social_exp,2021.2.0,Win32,59.88023952,,,,,,,,,,,,,,,,,,,,,,,Figures/confident_green.png,Figures/faces/9.png,Figures/confident_green.png,Figures/faces/19.png,Figures/confident_green.png,Figures/faces/20.png,Figures/unconfident_red.png,Figures/faces/10.png,,,right,0.9357,0,34,34,8,1,
,,,,,,,,,,SK05,,2021-09-23_12h48.38.495,beads_social_exp,2021.2.0,Win32,59.88023952,,,,,,,,,,,,,,,,,,,,,,,Figures/confident_green.png,Figures/faces/7.png,Figures/confident_green.png,Figures/faces/17.png,Figures/unconfident_red.png,Figures/faces/18.png,Figures/unconfident_red.png,Figures/faces/8.png,,,right,0.4031,1,0,35,16,1,
,,,,,,,,,,SK05,,2021-09-23_12h48.38.495,beads_social_exp,2021.2.0,Win32,59.88023952,,,,,,,,,,,,,,,,,,,,,,,Figures/confident_red.png,Figures/faces/1.png,Figures/confident_red.png,Figures/faces/11.png,Figures/confident_red.png,Figures/faces/12.png,Figures/confident_red.png,Figures/faces/2.png,,,left,2.8501,1,1,36,30,1,
,,,,,,,,,,SK05,,2021-09-23_12h48.38.495,beads_social_exp,2021.2.0,Win32,59.88023952,,,,,,,,,,,,,,,,,,,,,,,Figures/confident_green.png,Figures/faces/5.png,Figures/confident_green.png,Figures/faces/15.png,Figures/confident_green.png,Figures/faces/16.png,Figures/confident_green.png,Figures/faces/6.png,,,right,1.1728,1,2,37,4,1,
,,,,,,,,,,SK05,,2021-09-23_12h48.38.495,beads_social_exp,2021.2.0,Win32,59.88023952,,,,,,,,,,,,,,,,,,,,,,,Figures/confident_green.png,Figures/faces/1.png,Figures/confident_green.png,Figures/faces/11.png,Figures/confident_green.png,Figures/faces/12.png,Figures/unconfident_red.png,Figures/faces/2.png,,,right,0.356,1,3,38,10,1,
,,,,,,,,,,SK05,,2021-09-23_12h48.38.495,beads_social_exp,2021.2.0,Win32,59.88023952,,,,,,,,,,,,,,,,,,,,,,,Figures/confident_green.png,Figures/faces/9.png,Figures/confident_green.png,Figures/faces/19.png,Figures/confident_green.png,Figures/faces/20.png,Figures/unconfident_red.png,Figures/faces/10.png,,,right,0.818,1,4,39,8,1,
,,,,,,,,,,SK05,,2021-09-23_12h48.38.495,beads_social_exp,2021.2.0,Win32,59.88023952,,,,,,,,,,,,,,,,,,,,,,,Figures/confident_red.png,Figures/faces/4.png,Figures/confident_red.png,Figures/faces/14.png,Figures/confident_red.png,Figures/faces/15.png,Figures/unconfident_green.png,Figures/faces/5.png,,,left,2.4344,1,5,40,23,1,
,,,,,,,,,,SK05,,2021-09-23_12h48.38.495,beads_social_exp,2021.2.0,Win32,59.88023952,,,,,,,,,,,,,,,,,,,,,,,Figures/confident_green.png,Figures/faces/1.png,Figures/confident_green.png,Figures/faces/11.png,Figures/confident_green.png,Figures/faces/12.png,Figures/confident_green.png,Figures/faces/2.png,,,right,0.6584,1,6,41,0,1,
,,,,,,,,,,SK05,,2021-09-23_12h48.38.495,beads_social_exp,2021.2.0,Win32,59.88023952,,,,,,,,,,,,,,,,,,,,,,,Figures/confident_green.png,Figures/faces/2.png,Figures/confident_green.png,Figures/faces/12.png,Figures/confident_green.png,Figures/faces/13.png,Figures/unconfident_red.png,Figures/faces/3.png,,,right,3.8877,1,7,42,11,1,
,,,,,,,,,,SK05,,2021-09-23_12h48.38.495,beads_social_exp,2021.2.0,Win32,59.88023952,,,,,,,,,,,,,,,,,,,,,,,Figures/confident_green.png,Figures/faces/6.png,Figures/confident_green.png,Figures/faces/16.png,Figures/unconfident_red.png,Figures/faces/17.png,Figures/unconfident_red.png,Figures/faces/7.png,,,right,2.6212,1,8,43,15,1,
,,,,,,,,,,SK05,,2021-09-23_12h48.38.495,beads_social_exp,2021.2.0,Win32,59.88023952,,,,,,,,,,,,,,,,,,,,,,,Figures/confident_green.png,Figures/faces/8.png,Figures/confident_green.png,Figures/faces/18.png,Figures/unconfident_red.png,Figures/faces/19.png,Figures/unconfident_red.png,Figures/faces/9.png,,,right,5.6069,1,9,44,17,1,
,,,,,,,,,,SK05,,2021-09-23_12h48.38.495,beads_social_exp,2021.2.0,Win32,59.88023952,,,,,,,,,,,,,,,,,,,,,,,Figures/confident_green.png,Figures/faces/4.png,Figures/confident_green.png,Figures/faces/14.png,Figures/confident_green.png,Figures/faces/15.png,Figures/unconfident_red.png,Figures/faces/5.png,,,right,5.6381,1,10,45,13,1,
,,,,,,,,,,SK05,,2021-09-23_12h48.38.495,beads_social_exp,2021.2.0,Win32,59.88023952,,,,,,,,,,,,,,,,,,,,,,,Figures/confident_green.png,Figures/faces/1.png,Figures/confident_green.png,Figures/faces/11.png,Figures/unconfident_red.png,Figures/faces/12.png,Figures/unconfident_red.png,Figures/faces/2.png,,,right,1.206,1,11,46,20,1,
,,,,,,,,,,SK05,,2021-09-23_12h48.38.495,beads_social_exp,2021.2.0,Win32,59.88023952,,,,,,,,,,,,,,,,,,,,,,,Figures/confident_red.png,Figures/faces/9.png,Figures/confident_red.png,Figures/faces/19.png,Figures/confident_red.png,Figures/faces/20.png,Figures/confident_red.png,Figures/faces/10.png,,,left,1.311,1,12,47,28,1,
,,,,,,,,,,SK05,,2021-09-23_12h48.38.495,beads_social_exp,2021.2.0,Win32,59.88023952,,,,,,,,,,,,,,,,,,,,,,,Figures/confident_green.png,Figures/faces/7.png,Figures/confident_green.png,Figures/faces/17.png,Figures/confident_green.png,Figures/faces/18.png,Figures/confident_green.png,Figures/faces/8.png,,,right,0.5562,1,13,48,6,1,
,,,,,,,,,,SK05,,2021-09-23_12h48.38.495,beads_social_exp,2021.2.0,Win32,59.88023952,,,,,,,,,,,,,,,,,,,,,,,Figures/confident_red.png,Figures/faces/3.png,Figures/confident_red.png,Figures/faces/13.png,Figures/confident_red.png,Figures/faces/14.png,Figures/unconfident_green.png,Figures/faces/4.png,,,left,0.6341,1,14,49,22,1,
,,,,,,,,,,SK05,,2021-09-23_12h48.38.495,beads_social_exp,2021.2.0,Win32,59.88023952,,,,,,,,,,,,,,,,,,,,,,,Figures/confident_green.png,Figures/faces/9.png,Figures/confident_green.png,Figures/faces/19.png,Figures/unconfident_red.png,Figures/faces/20.png,Figures/unconfident_red.png,Figures/faces/10.png,,,right,0.3662,1,15,50,18,1,
,,,,,,,,,,SK05,,2021-09-23_12h48.38.495,beads_social_exp,2021.2.0,Win32,59.88023952,,,,,,,,,,,,,,,,,,,,,,,Figures/confident_green.png,Figures/faces/10.png,Figures/confident_green.png,Figures/faces/20.png,Figures/unconfident_red.png,Figures/faces/11.png,Figures/unconfident_red.png,Figures/faces/1.png,,,right,0.3559,1,16,51,19,1,
,,,,,,,,,,SK05,,2021-09-23_12h48.38.495,beads_social_exp,2021.2.0,Win32,59.88023952,,,,,,,,,,,,,,,,,,,,,,,Figures/confident_green.png,Figures/faces/4.png,Figures/confident_green.png,Figures/faces/14.png,Figures/confident_green.png,Figures/faces/15.png,Figures/confident_green.png,Figures/faces/5.png,,,right,0.3682,1,17,52,3,1,
,,,,,,,,,,SK05,,2021-09-23_12h48.38.495,beads_social_exp,2021.2.0,Win32,59.88023952,,,,,,,,,,,,,,,,,,,,,,,Figures/confident_green.png,Figures/faces/6.png,Figures/confident_green.png,Figures/faces/16.png,Figures/confident_green.png,Figures/faces/17.png,Figures/confident_green.png,Figures/faces/7.png,,,right,0.5676,1,18,53,5,1,
,,,,,,,,,,SK05,,2021-09-23_12h48.38.495,beads_social_exp,2021.2.0,Win32,59.88023952,,,,,,,,,,,,,,,,,,,,,,,Figures/confident_red.png,Figures/faces/5.png,Figures/confident_red.png,Figures/faces/15.png,Figures/confident_red.png,Figures/faces/16.png,Figures/confident_red.png,Figures/faces/6.png,,,left,0.6843,1,19,54,34,1,
,,,,,,,,,,SK05,,2021-09-23_12h48.38.495,beads_social_exp,2021.2.0,Win32,59.88023952,,,,,,,,,,,,,,,,,,,,,,,Figures/confident_red.png,Figures/faces/6.png,Figures/confident_red.png,Figures/faces/16.png,Figures/confident_red.png,Figures/faces/17.png,Figures/unconfident_green.png,Figures/faces/7.png,,,left,0.589,1,20,55,25,1,
,,,,,,,,,,SK05,,2021-09-23_12h48.38.495,beads_social_exp,2021.2.0,Win32,59.88023952,,,,,,,,,,,,,,,,,,,,,,,Figures/confident_red.png,Figures/faces/3.png,Figures/confident_red.png,Figures/faces/13.png,Figures/confident_red.png,Figures/faces/14.png,Figures/confident_red.png,Figures/faces/4.png,,,left,0.5518,1,21,56,32,1,
,,,,,,,,,,SK05,,2021-09-23_12h48.38.495,beads_social_exp,2021.2.0,Win32,59.88023952,,,,,,,,,,,,,,,,,,,,,,,Figures/confident_green.png,Figures/faces/3.png,Figures/confident_green.png,Figures/faces/13.png,Figures/confident_green.png,Figures/faces/14.png,Figures/confident_green.png,Figures/faces/4.png,,,right,0.3853,1,22,57,2,1,
,,,,,,,,,,SK05,,2021-09-23_12h48.38.495,beads_social_exp,2021.2.0,Win32,59.88023952,,,,,,,,,,,,,,,,,,,,,,,Figures/confident_green.png,Figures/faces/2.png,Figures/confident_green.png,Figures/faces/12.png,Figures/confident_green.png,Figures/faces/13.png,Figures/confident_green.png,Figures/faces/3.png,,,right,0.3559,1,23,58,1,1,
,,,,,,,,,,SK05,,2021-09-23_12h48.38.495,beads_social_exp,2021.2.0,Win32,59.88023952,,,,,,,,,,,,,,,,,,,,,,,Figures/confident_red.png,Figures/faces/2.png,Figures/confident_red.png,Figures/faces/12.png,Figures/confident_red.png,Figures/faces/13.png,Figures/unconfident_green.png,Figures/faces/3.png,,,left,1.6179,1,24,59,21,1,
,,,,,,,,,,SK05,,2021-09-23_12h48.38.495,beads_social_exp,2021.2.0,Win32,59.88023952,,,,,,,,,,,,,,,,,,,,,,,Figures/confident_red.png,Figures/faces/4.png,Figures/confident_red.png,Figures/faces/14.png,Figures/confident_red.png,Figures/faces/15.png,Figures/confident_red.png,Figures/faces/5.png,,,left,0.6892,1,25,60,33,1,
,,,,,,,,,,SK05,,2021-09-23_12h48.38.495,beads_social_exp,2021.2.0,Win32,59.88023952,,,,,,,,,,,,,,,,,,,,,,,Figures/confident_red.png,Figures/faces/10.png,Figures/confident_red.png,Figures/faces/20.png,Figures/confident_red.png,Figures/faces/11.png,Figures/confident_red.png,Figures/faces/1.png,,,left,1.6612,1,26,61,29,1,
,,,,,,,,,,SK05,,2021-09-23_12h48.38.495,beads_social_exp,2021.2.0,Win32,59.88023952,,,,,,,,,,,,,,,,,,,,,,,Figures/confident_green.png,Figures/faces/8.png,Figures/confident_green.png,Figures/faces/18.png,Figures/confident_green.png,Figures/faces/19.png,Figures/unconfident_red.png,Figures/faces/9.png,,,right,0.3515,1,27,62,7,1,
,,,,,,,,,,SK05,,2021-09-23_12h48.38.495,beads_social_exp,2021.2.0,Win32,59.88023952,,,,,,,,,,,,,,,,,,,,,,,Figures/confident_green.png,Figures/faces/3.png,Figures/confident_green.png,Figures/faces/13.png,Figures/confident_green.png,Figures/faces/14.png,Figures/unconfident_red.png,Figures/faces/4.png,,,right,0.5521,1,28,63,12,1,
,,,,,,,,,,SK05,,2021-09-23_12h48.38.495,beads_social_exp,2021.2.0,Win32,59.88023952,,,,,,,,,,,,,,,,,,,,,,,Figures/confident_green.png,Figures/faces/5.png,Figures/confident_green.png,Figures/faces/15.png,Figures/unconfident_red.png,Figures/faces/16.png,Figures/unconfident_red.png,Figures/faces/6.png,,,right,0.3949,1,29,64,14,1,
,,,,,,,,,,SK05,,2021-09-23_12h48.38.495,beads_social_exp,2021.2.0,Win32,59.88023952,,,,,,,,,,,,,,,,,,,,,,,Figures/confident_red.png,Figures/faces/2.png,Figures/confident_red.png,Figures/faces/12.png,Figures/confident_red.png,Figures/faces/13.png,Figures/confident_red.png,Figures/faces/3.png,,,left,0.4454,1,30,65,31,1,
,,,,,,,,,,SK05,,2021-09-23_12h48.38.495,beads_social_exp,2021.2.0,Win32,59.88023952,,,,,,,,,,,,,,,,,,,,,,,Figures/confident_red.png,Figures/faces/7.png,Figures/confident_red.png,Figures/faces/17.png,Figures/confident_red.png,Figures/faces/18.png,Figures/unconfident_green.png,Figures/faces/8.png,,,left,0.6675,1,31,66,26,1,
,,,,,,,,,,SK05,,2021-09-23_12h48.38.495,beads_social_exp,2021.2.0,Win32,59.88023952,,,,,,,,,,,,,,,,,,,,,,,Figures/confident_red.png,Figures/faces/8.png,Figures/confident_red.png,Figures/faces/18.png,Figures/confident_red.png,Figures/faces/19.png,Figures/unconfident_green.png,Figures/faces/9.png,,,left,0.4071,1,32,67,27,1,
,,,,,,,,,,SK05,,2021-09-23_12h48.38.495,beads_social_exp,2021.2.0,Win32,59.88023952,,,,,,,,,,,,,,,,,,,,,,,Figures/confident_green.png,Figures/faces/10.png,Figures/confident_green.png,Figures/faces/20.png,Figures/confident_green.png,Figures/faces/11.png,Figures/unconfident_red.png,Figures/faces/1.png,,,right,0.4583,1,33,68,9,1,
,,,,,,,,,,SK05,,2021-09-23_12h48.38.495,beads_social_exp,2021.2.0,Win32,59.88023952,,,,,,,,,,,,,,,,,,,,,,,Figures/confident_red.png,Figures/faces/5.png,Figures/confident_red.png,Figures/faces/15.png,Figures/confident_red.png,Figures/faces/16.png,Figures/unconfident_green.png,Figures/faces/6.png,,,left,0.5011,1,34,69,24,1,
,,,,,,,,,,SK05,,2021-09-23_12h48.38.495,beads_social_exp,2021.2.0,Win32,59.88023952,,,,,,,,,,,,,,,,,,,,,,,Figures/confident_red.png,Figures/faces/9.png,Figures/confident_red.png,Figures/faces/19.png,Figures/confident_red.png,Figures/faces/20.png,Figures/confident_red.png,Figures/faces/10.png,,,left,0.4911,2,0,70,28,1,
,,,,,,,,,,SK05,,2021-09-23_12h48.38.495,beads_social_exp,2021.2.0,Win32,59.88023952,,,,,,,,,,,,,,,,,,,,,,,Figures/confident_green.png,Figures/faces/5.png,Figures/confident_green.png,Figures/faces/15.png,Figures/confident_green.png,Figures/faces/16.png,Figures/confident_green.png,Figures/faces/6.png,,,right,0.8842,2,1,71,4,1,
,,,,,,,,,,SK05,,2021-09-23_12h48.38.495,beads_social_exp,2021.2.0,Win32,59.88023952,,,,,,,,,,,,,,,,,,,,,,,Figures/confident_green.png,Figures/faces/8.png,Figures/confident_green.png,Figures/faces/18.png,Figures/confident_green.png,Figures/faces/19.png,Figures/unconfident_red.png,Figures/faces/9.png,,,right,1.1042,2,2,72,7,1,
,,,,,,,,,,SK05,,2021-09-23_12h48.38.495,beads_social_exp,2021.2.0,Win32,59.88023952,,,,,,,,,,,,,,,,,,,,,,,Figures/confident_red.png,Figures/faces/8.png,Figures/confident_red.png,Figures/faces/18.png,Figures/confident_red.png,Figures/faces/19.png,Figures/unconfident_green.png,Figures/faces/9.png,,,left,0.421,2,3,73,27,1,
,,,,,,,,,,SK05,,2021-09-23_12h48.38.495,beads_social_exp,2021.2.0,Win32,59.88023952,,,,,,,,,,,,,,,,,,,,,,,Figures/confident_green.png,Figures/faces/1.png,Figures/confident_green.png,Figures/faces/11.png,Figures/unconfident_red.png,Figures/faces/12.png,Figures/unconfident_red.png,Figures/faces/2.png,,,right,7.8338,2,4,74,20,1,
,,,,,,,,,,SK05,,2021-09-23_12h48.38.495,beads_social_exp,2021.2.0,Win32,59.88023952,,,,,,,,,,,,,,,,,,,,,,,Figures/confident_red.png,Figures/faces/6.png,Figures/confident_red.png,Figures/faces/16.png,Figures/confident_red.png,Figures/faces/17.png,Figures/unconfident_green.png,Figures/faces/7.png,,,left,2.0575,2,5,75,25,1,
,,,,,,,,,,SK05,,2021-09-23_12h48.38.495,beads_social_exp,2021.2.0,Win32,59.88023952,,,,,,,,,,,,,,,,,,,,,,,Figures/confident_red.png,Figures/faces/3.png,Figures/confident_red.png,Figures/faces/13.png,Figures/confident_red.png,Figures/faces/14.png,Figures/unconfident_green.png,Figures/faces/4.png,,,left,0.4722,2,6,76,22,1,
,,,,,,,,,,SK05,,2021-09-23_12h48.38.495,beads_social_exp,2021.2.0,Win32,59.88023952,,,,,,,,,,,,,,,,,,,,,,,Figures/confident_green.png,Figures/faces/2.png,Figures/confident_green.png,Figures/faces/12.png,Figures/confident_green.png,Figures/faces/13.png,Figures/confident_green.png,Figures/faces/3.png,,,right,0.4017,2,7,77,1,1,
,,,,,,,,,,SK05,,2021-09-23_12h48.38.495,beads_social_exp,2021.2.0,Win32,59.88023952,,,,,,,,,,,,,,,,,,,,,,,Figures/confident_red.png,Figures/faces/4.png,Figures/confident_red.png,Figures/faces/14.png,Figures/confident_red.png,Figures/faces/15.png,Figures/unconfident_green.png,Figures/faces/5.png,,,left,0.4213,2,8,78,23,1,
,,,,,,,,,,SK05,,2021-09-23_12h48.38.495,beads_social_exp,2021.2.0,Win32,59.88023952,,,,,,,,,,,,,,,,,,,,,,,Figures/confident_red.png,Figures/faces/5.png,Figures/confident_red.png,Figures/faces/15.png,Figures/confident_red.png,Figures/faces/16.png,Figures/unconfident_green.png,Figures/faces/6.png,,,left,0.4283,2,9,79,24,1,
,,,,,,,,,,SK05,,2021-09-23_12h48.38.495,beads_social_exp,2021.2.0,Win32,59.88023952,,,,,,,,,,,,,,,,,,,,,,,Figures/confident_red.png,Figures/faces/2.png,Figures/confident_red.png,Figures/faces/12.png,Figures/confident_red.png,Figures/faces/13.png,Figures/unconfident_green.png,Figures/faces/3.png,,,left,0.4105,2,10,80,21,1,
,,,,,,,,,,SK05,,2021-09-23_12h48.38.495,beads_social_exp,2021.2.0,Win32,59.88023952,,,,,,,,,,,,,,,,,,,,,,,Figures/confident_green.png,Figures/faces/2.png,Figures/confident_green.png,Figures/faces/12.png,Figures/confident_green.png,Figures/faces/13.png,Figures/unconfident_red.png,Figures/faces/3.png,,,right,0.6201,2,11,81,11,1,
,,,,,,,,,,SK05,,2021-09-23_12h48.38.495,beads_social_exp,2021.2.0,Win32,59.88023952,,,,,,,,,,,,,,,,,,,,,,,Figures/confident_red.png,Figures/faces/4.png,Figures/confident_red.png,Figures/faces/14.png,Figures/confident_red.png,Figures/faces/15.png,Figures/confident_red.png,Figures/faces/5.png,,,left,0.5229,2,12,82,33,1,
,,,,,,,,,,SK05,,2021-09-23_12h48.38.495,beads_social_exp,2021.2.0,Win32,59.88023952,,,,,,,,,,,,,,,,,,,,,,,Figures/confident_green.png,Figures/faces/5.png,Figures/confident_green.png,Figures/faces/15.png,Figures/unconfident_red.png,Figures/faces/16.png,Figures/unconfident_red.png,Figures/faces/6.png,,,right,0.4175,2,13,83,14,1,
,,,,,,,,,,SK05,,2021-09-23_12h48.38.495,beads_social_exp,2021.2.0,Win32,59.88023952,,,,,,,,,,,,,,,,,,,,,,,Figures/confident_green.png,Figures/faces/6.png,Figures/confident_green.png,Figures/faces/16.png,Figures/confident_green.png,Figures/faces/17.png,Figures/confident_green.png,Figures/faces/7.png,,,right,0.5265,2,14,84,5,1,
,,,,,,,,,,SK05,,2021-09-23_12h48.38.495,beads_social_exp,2021.2.0,Win32,59.88023952,,,,,,,,,,,,,,,,,,,,,,,Figures/confident_green.png,Figures/faces/8.png,Figures/confident_green.png,Figures/faces/18.png,Figures/unconfident_red.png,Figures/faces/19.png,Figures/unconfident_red.png,Figures/faces/9.png,,,right,0.5176,2,15,85,17,1,
,,,,,,,,,,SK05,,2021-09-23_12h48.38.495,beads_social_exp,2021.2.0,Win32,59.88023952,,,,,,,,,,,,,,,,,,,,,,,Figures/confident_green.png,Figures/faces/3.png,Figures/confident_green.png,Figures/faces/13.png,Figures/confident_green.png,Figures/faces/14.png,Figures/unconfident_red.png,Figures/faces/4.png,,,right,0.5775,2,16,86,12,1,
,,,,,,,,,,SK05,,2021-09-23_12h48.38.495,beads_social_exp,2021.2.0,Win32,59.88023952,,,,,,,,,,,,,,,,,,,,,,,Figures/confident_red.png,Figures/faces/5.png,Figures/confident_red.png,Figures/faces/15.png,Figures/confident_red.png,Figures/faces/16.png,Figures/confident_red.png,Figures/faces/6.png,,,left,1.1204,2,17,87,34,1,
,,,,,,,,,,SK05,,2021-09-23_12h48.38.495,beads_social_exp,2021.2.0,Win32,59.88023952,,,,,,,,,,,,,,,,,,,,,,,Figures/confident_green.png,Figures/faces/7.png,Figures/confident_green.png,Figures/faces/17.png,Figures/unconfident_red.png,Figures/faces/18.png,Figures/unconfident_red.png,Figures/faces/8.png,,,right,0.3184,2,18,88,16,1,
,,,,,,,,,,SK05,,2021-09-23_12h48.38.495,beads_social_exp,2021.2.0,Win32,59.88023952,,,,,,,,,,,,,,,,,,,,,,,Figures/confident_green.png,Figures/faces/9.png,Figures/confident_green.png,Figures/faces/19.png,Figures/unconfident_red.png,Figures/faces/20.png,Figures/unconfident_red.png,Figures/faces/10.png,,,right,3.0509,2,19,89,18,1,
,,,,,,,,,,SK05,,2021-09-23_12h48.38.495,beads_social_exp,2021.2.0,Win32,59.88023952,,,,,,,,,,,,,,,,,,,,,,,Figures/confident_red.png,Figures/faces/1.png,Figures/confident_red.png,Figures/faces/11.png,Figures/confident_red.png,Figures/faces/12.png,Figures/confident_red.png,Figures/faces/2.png,,,left,0.8209,2,20,90,30,1,
,,,,,,,,,,SK05,,2021-09-23_12h48.38.495,beads_social_exp,2021.2.0,Win32,59.88023952,,,,,,,,,,,,,,,,,,,,,,,Figures/confident_red.png,Figures/faces/3.png,Figures/confident_red.png,Figures/faces/13.png,Figures/confident_red.png,Figures/faces/14.png,Figures/confident_red.png,Figures/faces/4.png,,,left,1.3732,2,21,91,32,1,
,,,,,,,,,,SK05,,2021-09-23_12h48.38.495,beads_social_exp,2021.2.0,Win32,59.88023952,,,,,,,,,,,,,,,,,,,,,,,Figures/confident_green.png,Figures/faces/1.png,Figures/confident_green.png,Figures/faces/11.png,Figures/confident_green.png,Figures/faces/12.png,Figures/confident_green.png,Figures/faces/2.png,,,right,0.3586,2,22,92,0,1,
,,,,,,,,,,SK05,,2021-09-23_12h48.38.495,beads_social_exp,2021.2.0,Win32,59.88023952,,,,,,,,,,,,,,,,,,,,,,,Figures/confident_red.png,Figures/faces/2.png,Figures/confident_red.png,Figures/faces/12.png,Figures/confident_red.png,Figures/faces/13.png,Figures/confident_red.png,Figures/faces/3.png,,,left,0.5339,2,23,93,31,1,
,,,,,,,,,,SK05,,2021-09-23_12h48.38.495,beads_social_exp,2021.2.0,Win32,59.88023952,,,,,,,,,,,,,,,,,,,,,,,Figures/confident_green.png,Figures/faces/10.png,Figures/confident_green.png,Figures/faces/20.png,Figures/confident_green.png,Figures/faces/11.png,Figures/unconfident_red.png,Figures/faces/1.png,,,right,0.4511,2,24,94,9,1,
,,,,,,,,,,SK05,,2021-09-23_12h48.38.495,beads_social_exp,2021.2.0,Win32,59.88023952,,,,,,,,,,,,,,,,,,,,,,,Figures/confident_red.png,Figures/faces/10.png,Figures/confident_red.png,Figures/faces/20.png,Figures/confident_red.png,Figures/faces/11.png,Figures/confident_red.png,Figures/faces/1.png,,,left,1.8178,2,25,95,29,1,
,,,,,,,,,,SK05,,2021-09-23_12h48.38.495,beads_social_exp,2021.2.0,Win32,59.88023952,,,,,,,,,,,,,,,,,,,,,,,Figures/confident_green.png,Figures/faces/9.png,Figures/confident_green.png,Figures/faces/19.png,Figures/confident_green.png,Figures/faces/20.png,Figures/unconfident_red.png,Figures/faces/10.png,,,right,0.3553,2,26,96,8,1,
,,,,,,,,,,SK05,,2021-09-23_12h48.38.495,beads_social_exp,2021.2.0,Win32,59.88023952,,,,,,,,,,,,,,,,,,,,,,,Figures/confident_green.png,Figures/faces/4.png,Figures/confident_green.png,Figures/faces/14.png,Figures/confident_green.png,Figures/faces/15.png,Figures/confident_green.png,Figures/faces/5.png,,,right,0.4036,2,27,97,3,1,
,,,,,,,,,,SK05,,2021-09-23_12h48.38.495,beads_social_exp,2021.2.0,Win32,59.88023952,,,,,,,,,,,,,,,,,,,,,,,Figures/confident_green.png,Figures/faces/1.png,Figures/confident_green.png,Figures/faces/11.png,Figures/confident_green.png,Figures/faces/12.png,Figures/unconfident_red.png,Figures/faces/2.png,,,right,0.3713,2,28,98,10,1,
,,,,,,,,,,SK05,,2021-09-23_12h48.38.495,beads_social_exp,2021.2.0,Win32,59.88023952,,,,,,,,,,,,,,,,,,,,,,,Figures/confident_green.png,Figures/faces/10.png,Figures/confident_green.png,Figures/faces/20.png,Figures/unconfident_red.png,Figures/faces/11.png,Figures/unconfident_red.png,Figures/faces/1.png,,,right,2.2048,2,29,99,19,1,
,,,,,,,,,,SK05,,2021-09-23_12h48.38.495,beads_social_exp,2021.2.0,Win32,59.88023952,,,,,,,,,,,,,,,,,,,,,,,Figures/confident_green.png,Figures/faces/4.png,Figures/confident_green.png,Figures/faces/14.png,Figures/confident_green.png,Figures/faces/15.png,Figures/unconfident_red.png,Figures/faces/5.png,,,right,1.5023,2,30,100,13,1,
,,,,,,,,,,SK05,,2021-09-23_12h48.38.495,beads_social_exp,2021.2.0,Win32,59.88023952,,,,,,,,,,,,,,,,,,,,,,,Figures/confident_green.png,Figures/faces/6.png,Figures/confident_green.png,Figures/faces/16.png,Figures/unconfident_red.png,Figures/faces/17.png,Figures/unconfident_red.png,Figures/faces/7.png,,,right,0.3879,2,31,101,15,1,
,,,,,,,,,,SK05,,2021-09-23_12h48.38.495,beads_social_exp,2021.2.0,Win32,59.88023952,,,,,,,,,,,,,,,,,,,,,,,Figures/confident_green.png,Figures/faces/7.png,Figures/confident_green.png,Figures/faces/17.png,Figures/confident_green.png,Figures/faces/18.png,Figures/confident_green.png,Figures/faces/8.png,,,right,1.6234,2,32,102,6,1,
,,,,,,,,,,SK05,,2021-09-23_12h48.38.495,beads_social_exp,2021.2.0,Win32,59.88023952,,,,,,,,,,,,,,,,,,,,,,,Figures/confident_red.png,Figures/faces/7.png,Figures/confident_red.png,Figures/faces/17.png,Figures/confident_red.png,Figures/faces/18.png,Figures/unconfident_green.png,Figures/faces/8.png,,,left,0.3847,2,33,103,26,1,
,,,,,,,,,,SK05,,2021-09-23_12h48.38.495,beads_social_exp,2021.2.0,Win32,59.88023952,,,,,,,,,,,,,,,,,,,,,,,Figures/confident_green.png,Figures/faces/3.png,Figures/confident_green.png,Figures/faces/13.png,Figures/confident_green.png,Figures/faces/14.png,Figures/confident_green.png,Figures/faces/4.png,,,right,0.4222,2,34,104,2,1,
,,,,,,,,,,SK05,,2021-09-23_12h48.38.495,beads_social_exp,2021.2.0,Win32,59.88023952,,,,,,,,,,,,,,,,,,,,,,,,,,,,,,,,,,,,,,,,
