intro_loop.thisRepN,intro_loop.thisTrialN,intro_loop.thisN,intro_loop.thisIndex,intro_loop.ran,Figure,Figure2,Figure3,Figure4,Text,participant,session,date,expName,psychopyVersion,OS,frameRate,key_resp.keys,key_resp.rt,confidence_response.keys,confidence_response.rt,practice_trials.thisRepN,practice_trials.thisTrialN,practice_trials.thisN,practice_trials.thisIndex,practice_trials.ran,beads_image,intro_agents.thisRepN,intro_agents.thisTrialN,intro_agents.thisN,intro_agents.thisIndex,intro_agents.ran,key_resp1.keys,key_resp1.rt,trials.thisRepN,trials.thisTrialN,trials.thisN,trials.thisIndex,trials.ran,agent1,agent1_face,agent2,agent2_face,agent3,agent3_face,agent4,agent4_face,key_resp_4.keys,key_resp_4.rt,participant_decision.keys,participant_decision.rt,trials_real.thisRepN,trials_real.thisTrialN,trials_real.thisN,trials_real.thisIndex,trials_real.ran,key_resp_2.keys
0,0,0,0,1,Figures/blank_image.png,Figures/blank_image.png,Figures/blank_image.png,Figures/blank_image.png,"The experiment you will perform is a variation on a task known as the ""beads task"".",JA23,,2021-09-23_18h59.49.273,beads_social_exp,2021.2.0,Win32,61.50818059,,,,,,,,,,,,,,,,,,,,,,,,,,,,,,,,,,,,,,,,
0,1,1,1,1,Figures/all_jars.png,Figures/blank_image.png,Figures/blank_image.png,Figures/blank_image.png,"In this variant of the experiment, there are 9 jars containing various proportions of red and green beads.",JA23,,2021-09-23_18h59.49.273,beads_social_exp,2021.2.0,Win32,61.50818059,,,,,,,,,,,,,,,,,,,,,,,,,,,,,,,,,,,,,,,,
0,2,2,2,1,Figures/jar_covered.png,Figures/blank_image.png,Figures/blank_image.png,Figures/blank_image.png,"One jar is chosen at random and covered, hiding the beads.",JA23,,2021-09-23_18h59.49.273,beads_social_exp,2021.2.0,Win32,61.50818059,,,,,,,,,,,,,,,,,,,,,,,,,,,,,,,,,,,,,,,,
0,3,3,3,1,Figures/jar_covered.png,Figures/sample_1_red.png,Figures/blank_image.png,Figures/hand_front.png,8 beads are randomly drawn from this jar.,JA23,,2021-09-23_18h59.49.273,beads_social_exp,2021.2.0,Win32,61.50818059,,,,,,,,,,,,,,,,,,,,,,,,,,,,,,,,,,,,,,,,
0,4,4,4,1,Figures/jar_covered.png,Figures/sample_1_red.png,Figures/random_bead.png,Figures/hand_front.png,A new bead will then be drawn from the jar.,JA23,,2021-09-23_18h59.49.273,beads_social_exp,2021.2.0,Win32,61.50818059,,,,,,,,,,,,,,,,,,,,,,,,,,,,,,,,,,,,,,,,
0,5,5,5,1,Figures/jar_covered.png,Figures/sample_1_red.png,Figures/random_bead.png,Figures/hand_front.png,Your task is to guess what colour (red or green) this next bead will be.,JA23,,2021-09-23_18h59.49.273,beads_social_exp,2021.2.0,Win32,61.50818059,,,,,,,,,,,,,,,,,,,,,,,,,,,,,,,,,,,,,,,,
0,6,6,6,1,Figures/blank_image.png,Figures/blank_image.png,Figures/blank_image.png,Figures/blank_image.png,You will perform this experiment with four other (simulated) participants.,JA23,,2021-09-23_18h59.49.273,beads_social_exp,2021.2.0,Win32,61.50818059,,,,,,,,,,,,,,,,,,,,,,,,,,,,,,,,,,,,,,,,
0,7,7,7,1,Figures/blank_image.png,Figures/blank_image.png,Figures/blank_image.png,Figures/blank_image.png,"You will be able to see their guess (but not their beads), as well as see how confident they are in their guess.",JA23,,2021-09-23_18h59.49.273,beads_social_exp,2021.2.0,Win32,61.50818059,,,,,,,,,,,,,,,,,,,,,,,,,,,,,,,,,,,,,,,,
0,8,8,8,1,Figures/blank_image.png,Figures/blank_image.png,Figures/blank_image.png,Figures/blank_image.png,"Unlike the original ""beads task"", you therefore have access to additional social information.",JA23,,2021-09-23_18h59.49.273,beads_social_exp,2021.2.0,Win32,61.50818059,,,,,,,,,,,,,,,,,,,,,,,,,,,,,,,,,,,,,,,,
0,9,9,9,1,Figures/blank_image.png,Figures/blank_image.png,Figures/blank_image.png,Figures/blank_image.png,We will perform 5 practice trials without the other participants to help you understand how the task works.,JA23,,2021-09-23_18h59.49.273,beads_social_exp,2021.2.0,Win32,61.50818059,,,,,,,,,,,,,,,,,,,,,,,,,,,,,,,,,,,,,,,,
,,,,,,,,,,JA23,,2021-09-23_18h59.49.273,beads_social_exp,2021.2.0,Win32,61.50818059,right,1.7122,left,1.9189,0,0,0,0,1,Figures/sample_2_red.png,,,,,,,,,,,,,,,,,,,,,,,,,,,,,,
,,,,,,,,,,JA23,,2021-09-23_18h59.49.273,beads_social_exp,2021.2.0,Win32,61.50818059,left,0.5393,left,1.1476,0,1,1,4,1,Figures/sample_6_red.png,,,,,,,,,,,,,,,,,,,,,,,,,,,,,,
,,,,,,,,,,JA23,,2021-09-23_18h59.49.273,beads_social_exp,2021.2.0,Win32,61.50818059,right,2.916,left,1.3734,0,2,2,1,1,Figures/sample_3_red.png,,,,,,,,,,,,,,,,,,,,,,,,,,,,,,
,,,,,,,,,,JA23,,2021-09-23_18h59.49.273,beads_social_exp,2021.2.0,Win32,61.50818059,right,2.7247,right,0.6617,0,3,3,2,1,Figures/sample_4_red.png,,,,,,,,,,,,,,,,,,,,,,,,,,,,,,
,,,,,,,,,,JA23,,2021-09-23_18h59.49.273,beads_social_exp,2021.2.0,Win32,61.50818059,left,1.3531,left,1.4437,0,4,4,3,1,Figures/sample_5_red.png,,,,,,,,,,,,,,,,,,,,,,,,,,,,,,
,,,,,Figures/blank_image.png,,,,"You will now perform the same experiment, but you will do so alongside four other (simulated) agents.",JA23,,2021-09-23_18h59.49.273,beads_social_exp,2021.2.0,Win32,61.50818059,,,,,,,,,,,0,0,0,0,1,,,,,,,,,,,,,,,,,,,,,,,,,
,,,,,Figures/blank_image.png,,,,"As before, each agent will draw 8 random beads, guess the colour of the next bead and state their confidence, then replace all the beads back into the jar.",JA23,,2021-09-23_18h59.49.273,beads_social_exp,2021.2.0,Win32,61.50818059,,,,,,,,,,,0,1,1,1,1,,,,,,,,,,,,,,,,,,,,,,,,,
,,,,,Figures/blank_image.png,,,,"All the agents, along with yourself, will be drawing beads from the same jar.",JA23,,2021-09-23_18h59.49.273,beads_social_exp,2021.2.0,Win32,61.50818059,,,,,,,,,,,0,2,2,2,1,,,,,,,,,,,,,,,,,,,,,,,,,
,,,,,Figures/blank_image.png,,,,Though do note that you will all replace the beads back into the jar before the next participant/agent has their turn.,JA23,,2021-09-23_18h59.49.273,beads_social_exp,2021.2.0,Win32,61.50818059,,,,,,,,,,,0,3,3,3,1,,,,,,,,,,,,,,,,,,,,,,,,,
,,,,,Figures/possible_agent_responses.png,,,,Their choice of colour and confidence will be shown using the above four images.,JA23,,2021-09-23_18h59.49.273,beads_social_exp,2021.2.0,Win32,61.50818059,,,,,,,,,,,0,4,4,4,1,,,,,,,,,,,,,,,,,,,,,,,,,
,,,,,Figures/possible_agent_responses.png,,,,You can therefore use the agents decisions to inform your own decision about the colour of the next bead.,JA23,,2021-09-23_18h59.49.273,beads_social_exp,2021.2.0,Win32,61.50818059,,,,,,,,,,,0,5,5,5,1,,,,,,,,,,,,,,,,,,,,,,,,,
,,,,,Figures/possible_agent_responses.png,,,,You will not need to state your confidence in this part of the experiment. You only need to guess the colour of the next bead.,JA23,,2021-09-23_18h59.49.273,beads_social_exp,2021.2.0,Win32,61.50818059,,,,,,,,,,,0,6,6,6,1,,,,,,,,,,,,,,,,,,,,,,,,,
,,,,,Figures/possible_agent_responses.png,,,,We will begin 10 practice trials.,JA23,,2021-09-23_18h59.49.273,beads_social_exp,2021.2.0,Win32,61.50818059,,,,,,,,,,,0,7,7,7,1,,,,,,,,,,,,,,,,,,,,,,,,,
,,,,,,,,,,JA23,,2021-09-23_18h59.49.273,beads_social_exp,2021.2.0,Win32,61.50818059,,,,,,,,,,,,,,,,right,1.0449,0,0,0,2,1,Figures/confident_green.png,Figures/faces/9.png,Figures/confident_green.png,Figures/faces/19.png,Figures/confident_green.png,Figures/faces/20.png,Figures/unconfident_red.png,Figures/faces/10.png,,,,,,,,,,
,,,,,,,,,,JA23,,2021-09-23_18h59.49.273,beads_social_exp,2021.2.0,Win32,61.50818059,,,,,,,,,,,,,,,,right,0.9003,0,1,1,5,1,Figures/confident_green.png,Figures/faces/8.png,Figures/confident_green.png,Figures/faces/18.png,Figures/unconfident_red.png,Figures/faces/19.png,Figures/unconfident_red.png,Figures/faces/9.png,,,,,,,,,,
,,,,,,,,,,JA23,,2021-09-23_18h59.49.273,beads_social_exp,2021.2.0,Win32,61.50818059,,,,,,,,,,,,,,,,right,1.0348,0,2,2,3,1,Figures/confident_green.png,Figures/faces/1.png,Figures/confident_green.png,Figures/faces/11.png,Figures/confident_green.png,Figures/faces/12.png,Figures/unconfident_red.png,Figures/faces/2.png,,,,,,,,,,
,,,,,,,,,,JA23,,2021-09-23_18h59.49.273,beads_social_exp,2021.2.0,Win32,61.50818059,,,,,,,,,,,,,,,,left,0.5925,0,3,3,1,1,Figures/confident_green.png,Figures/faces/5.png,Figures/confident_green.png,Figures/faces/15.png,Figures/confident_green.png,Figures/faces/16.png,Figures/confident_green.png,Figures/faces/6.png,,,,,,,,,,
,,,,,,,,,,JA23,,2021-09-23_18h59.49.273,beads_social_exp,2021.2.0,Win32,61.50818059,,,,,,,,,,,,,,,,right,0.5936,0,4,4,0,1,Figures/confident_green.png,Figures/faces/1.png,Figures/confident_green.png,Figures/faces/11.png,Figures/confident_green.png,Figures/faces/12.png,Figures/confident_green.png,Figures/faces/2.png,,,,,,,,,,
,,,,,,,,,,JA23,,2021-09-23_18h59.49.273,beads_social_exp,2021.2.0,Win32,61.50818059,,,,,,,,,,,,,,,,left,0.935,0,5,5,8,1,Figures/confident_red.png,Figures/faces/6.png,Figures/confident_red.png,Figures/faces/16.png,Figures/confident_red.png,Figures/faces/17.png,Figures/unconfident_green.png,Figures/faces/7.png,,,,,,,,,,
,,,,,,,,,,JA23,,2021-09-23_18h59.49.273,beads_social_exp,2021.2.0,Win32,61.50818059,,,,,,,,,,,,,,,,left,0.6183,0,6,6,9,1,Figures/confident_red.png,Figures/faces/5.png,Figures/confident_red.png,Figures/faces/15.png,Figures/confident_red.png,Figures/faces/16.png,Figures/confident_red.png,Figures/faces/6.png,,,,,,,,,,
,,,,,,,,,,JA23,,2021-09-23_18h59.49.273,beads_social_exp,2021.2.0,Win32,61.50818059,,,,,,,,,,,,,,,,right,0.8884,0,7,7,4,1,Figures/confident_green.png,Figures/faces/7.png,Figures/confident_green.png,Figures/faces/17.png,Figures/unconfident_red.png,Figures/faces/18.png,Figures/unconfident_red.png,Figures/faces/8.png,,,,,,,,,,
,,,,,,,,,,JA23,,2021-09-23_18h59.49.273,beads_social_exp,2021.2.0,Win32,61.50818059,,,,,,,,,,,,,,,,left,0.5334,0,8,8,7,1,Figures/confident_green.png,Figures/faces/10.png,Figures/confident_green.png,Figures/faces/20.png,Figures/unconfident_red.png,Figures/faces/11.png,Figures/unconfident_red.png,Figures/faces/1.png,,,,,,,,,,
,,,,,,,,,,JA23,,2021-09-23_18h59.49.273,beads_social_exp,2021.2.0,Win32,61.50818059,,,,,,,,,,,,,,,,left,0.5502,0,9,9,6,1,Figures/confident_green.png,Figures/faces/9.png,Figures/confident_green.png,Figures/faces/19.png,Figures/unconfident_red.png,Figures/faces/20.png,Figures/unconfident_red.png,Figures/faces/10.png,,,,,,,,,,
,,,,,,,,,,JA23,,2021-09-23_18h59.49.273,beads_social_exp,2021.2.0,Win32,61.50818059,,,,,,,,,,,,,,,,,,,,,,,Figures/confident_green.png,Figures/faces/7.png,Figures/confident_green.png,Figures/faces/17.png,Figures/confident_green.png,Figures/faces/18.png,Figures/confident_green.png,Figures/faces/8.png,space,3.476,left,0.5506,0,0,0,6,1,
,,,,,,,,,,JA23,,2021-09-23_18h59.49.273,beads_social_exp,2021.2.0,Win32,61.50818059,,,,,,,,,,,,,,,,,,,,,,,Figures/confident_red.png,Figures/faces/3.png,Figures/confident_red.png,Figures/faces/13.png,Figures/confident_red.png,Figures/faces/14.png,Figures/unconfident_green.png,Figures/faces/4.png,,,right,0.5361,0,1,1,22,1,
,,,,,,,,,,JA23,,2021-09-23_18h59.49.273,beads_social_exp,2021.2.0,Win32,61.50818059,,,,,,,,,,,,,,,,,,,,,,,Figures/confident_red.png,Figures/faces/7.png,Figures/confident_red.png,Figures/faces/17.png,Figures/confident_red.png,Figures/faces/18.png,Figures/unconfident_green.png,Figures/faces/8.png,,,left,0.4168,0,2,2,26,1,
,,,,,,,,,,JA23,,2021-09-23_18h59.49.273,beads_social_exp,2021.2.0,Win32,61.50818059,,,,,,,,,,,,,,,,,,,,,,,Figures/confident_red.png,Figures/faces/2.png,Figures/confident_red.png,Figures/faces/12.png,Figures/confident_red.png,Figures/faces/13.png,Figures/unconfident_green.png,Figures/faces/3.png,,,right,0.5043,0,3,3,21,1,
,,,,,,,,,,JA23,,2021-09-23_18h59.49.273,beads_social_exp,2021.2.0,Win32,61.50818059,,,,,,,,,,,,,,,,,,,,,,,Figures/confident_red.png,Figures/faces/3.png,Figures/confident_red.png,Figures/faces/13.png,Figures/confident_red.png,Figures/faces/14.png,Figures/confident_red.png,Figures/faces/4.png,,,left,0.7245,0,4,4,32,1,
,,,,,,,,,,JA23,,2021-09-23_18h59.49.273,beads_social_exp,2021.2.0,Win32,61.50818059,,,,,,,,,,,,,,,,,,,,,,,Figures/confident_green.png,Figures/faces/5.png,Figures/confident_green.png,Figures/faces/15.png,Figures/confident_green.png,Figures/faces/16.png,Figures/confident_green.png,Figures/faces/6.png,,,left,0.8681,0,5,5,4,1,
,,,,,,,,,,JA23,,2021-09-23_18h59.49.273,beads_social_exp,2021.2.0,Win32,61.50818059,,,,,,,,,,,,,,,,,,,,,,,Figures/confident_green.png,Figures/faces/9.png,Figures/confident_green.png,Figures/faces/19.png,Figures/confident_green.png,Figures/faces/20.png,Figures/unconfident_red.png,Figures/faces/10.png,,,right,0.7339,0,6,6,8,1,
,,,,,,,,,,JA23,,2021-09-23_18h59.49.273,beads_social_exp,2021.2.0,Win32,61.50818059,,,,,,,,,,,,,,,,,,,,,,,Figures/confident_green.png,Figures/faces/8.png,Figures/confident_green.png,Figures/faces/18.png,Figures/unconfident_red.png,Figures/faces/19.png,Figures/unconfident_red.png,Figures/faces/9.png,,,left,1.1337,0,7,7,17,1,
,,,,,,,,,,JA23,,2021-09-23_18h59.49.273,beads_social_exp,2021.2.0,Win32,61.50818059,,,,,,,,,,,,,,,,,,,,,,,Figures/confident_green.png,Figures/faces/6.png,Figures/confident_green.png,Figures/faces/16.png,Figures/unconfident_red.png,Figures/faces/17.png,Figures/unconfident_red.png,Figures/faces/7.png,,,right,0.5254,0,8,8,15,1,
,,,,,,,,,,JA23,,2021-09-23_18h59.49.273,beads_social_exp,2021.2.0,Win32,61.50818059,,,,,,,,,,,,,,,,,,,,,,,Figures/confident_red.png,Figures/faces/6.png,Figures/confident_red.png,Figures/faces/16.png,Figures/confident_red.png,Figures/faces/17.png,Figures/unconfident_green.png,Figures/faces/7.png,,,left,0.6007,0,9,9,25,1,
,,,,,,,,,,JA23,,2021-09-23_18h59.49.273,beads_social_exp,2021.2.0,Win32,61.50818059,,,,,,,,,,,,,,,,,,,,,,,Figures/confident_red.png,Figures/faces/1.png,Figures/confident_red.png,Figures/faces/11.png,Figures/confident_red.png,Figures/faces/12.png,Figures/confident_red.png,Figures/faces/2.png,,,right,0.852,0,10,10,30,1,
,,,,,,,,,,JA23,,2021-09-23_18h59.49.273,beads_social_exp,2021.2.0,Win32,61.50818059,,,,,,,,,,,,,,,,,,,,,,,Figures/confident_green.png,Figures/faces/3.png,Figures/confident_green.png,Figures/faces/13.png,Figures/confident_green.png,Figures/faces/14.png,Figures/confident_green.png,Figures/faces/4.png,,,right,0.5827,0,11,11,2,1,
,,,,,,,,,,JA23,,2021-09-23_18h59.49.273,beads_social_exp,2021.2.0,Win32,61.50818059,,,,,,,,,,,,,,,,,,,,,,,Figures/confident_green.png,Figures/faces/10.png,Figures/confident_green.png,Figures/faces/20.png,Figures/confident_green.png,Figures/faces/11.png,Figures/unconfident_red.png,Figures/faces/1.png,,,right,0.5511,0,12,12,9,1,
,,,,,,,,,,JA23,,2021-09-23_18h59.49.273,beads_social_exp,2021.2.0,Win32,61.50818059,,,,,,,,,,,,,,,,,,,,,,,Figures/confident_green.png,Figures/faces/1.png,Figures/confident_green.png,Figures/faces/11.png,Figures/unconfident_red.png,Figures/faces/12.png,Figures/unconfident_red.png,Figures/faces/2.png,,,left,0.6876,0,13,13,20,1,
,,,,,,,,,,JA23,,2021-09-23_18h59.49.273,beads_social_exp,2021.2.0,Win32,61.50818059,,,,,,,,,,,,,,,,,,,,,,,Figures/confident_red.png,Figures/faces/9.png,Figures/confident_red.png,Figures/faces/19.png,Figures/confident_red.png,Figures/faces/20.png,Figures/confident_red.png,Figures/faces/10.png,,,right,0.4874,0,14,14,28,1,
,,,,,,,,,,JA23,,2021-09-23_18h59.49.273,beads_social_exp,2021.2.0,Win32,61.50818059,,,,,,,,,,,,,,,,,,,,,,,Figures/confident_green.png,Figures/faces/5.png,Figures/confident_green.png,Figures/faces/15.png,Figures/unconfident_red.png,Figures/faces/16.png,Figures/unconfident_red.png,Figures/faces/6.png,,,right,0.4505,0,15,15,14,1,
,,,,,,,,,,JA23,,2021-09-23_18h59.49.273,beads_social_exp,2021.2.0,Win32,61.50818059,,,,,,,,,,,,,,,,,,,,,,,Figures/confident_green.png,Figures/faces/8.png,Figures/confident_green.png,Figures/faces/18.png,Figures/confident_green.png,Figures/faces/19.png,Figures/unconfident_red.png,Figures/faces/9.png,,,right,0.7876,0,16,16,7,1,
,,,,,,,,,,JA23,,2021-09-23_18h59.49.273,beads_social_exp,2021.2.0,Win32,61.50818059,,,,,,,,,,,,,,,,,,,,,,,Figures/confident_green.png,Figures/faces/2.png,Figures/confident_green.png,Figures/faces/12.png,Figures/confident_green.png,Figures/faces/13.png,Figures/confident_green.png,Figures/faces/3.png,,,right,0.6914,0,17,17,1,1,
,,,,,,,,,,JA23,,2021-09-23_18h59.49.273,beads_social_exp,2021.2.0,Win32,61.50818059,,,,,,,,,,,,,,,,,,,,,,,Figures/confident_green.png,Figures/faces/6.png,Figures/confident_green.png,Figures/faces/16.png,Figures/confident_green.png,Figures/faces/17.png,Figures/confident_green.png,Figures/faces/7.png,,,left,0.6173,0,18,18,5,1,
,,,,,,,,,,JA23,,2021-09-23_18h59.49.273,beads_social_exp,2021.2.0,Win32,61.50818059,,,,,,,,,,,,,,,,,,,,,,,Figures/confident_green.png,Figures/faces/1.png,Figures/confident_green.png,Figures/faces/11.png,Figures/confident_green.png,Figures/faces/12.png,Figures/unconfident_red.png,Figures/faces/2.png,,,right,1.5512,0,19,19,10,1,
,,,,,,,,,,JA23,,2021-09-23_18h59.49.273,beads_social_exp,2021.2.0,Win32,61.50818059,,,,,,,,,,,,,,,,,,,,,,,Figures/confident_green.png,Figures/faces/7.png,Figures/confident_green.png,Figures/faces/17.png,Figures/unconfident_red.png,Figures/faces/18.png,Figures/unconfident_red.png,Figures/faces/8.png,,,right,0.4508,0,20,20,16,1,
,,,,,,,,,,JA23,,2021-09-23_18h59.49.273,beads_social_exp,2021.2.0,Win32,61.50818059,,,,,,,,,,,,,,,,,,,,,,,Figures/confident_green.png,Figures/faces/9.png,Figures/confident_green.png,Figures/faces/19.png,Figures/unconfident_red.png,Figures/faces/20.png,Figures/unconfident_red.png,Figures/faces/10.png,,,left,4.7907,0,21,21,18,1,
,,,,,,,,,,JA23,,2021-09-23_18h59.49.273,beads_social_exp,2021.2.0,Win32,61.50818059,,,,,,,,,,,,,,,,,,,,,,,Figures/confident_red.png,Figures/faces/8.png,Figures/confident_red.png,Figures/faces/18.png,Figures/confident_red.png,Figures/faces/19.png,Figures/unconfident_green.png,Figures/faces/9.png,,,left,0.4845,0,22,22,27,1,
,,,,,,,,,,JA23,,2021-09-23_18h59.49.273,beads_social_exp,2021.2.0,Win32,61.50818059,,,,,,,,,,,,,,,,,,,,,,,Figures/confident_green.png,Figures/faces/4.png,Figures/confident_green.png,Figures/faces/14.png,Figures/confident_green.png,Figures/faces/15.png,Figures/unconfident_red.png,Figures/faces/5.png,,,left,0.4943,0,23,23,13,1,
,,,,,,,,,,JA23,,2021-09-23_18h59.49.273,beads_social_exp,2021.2.0,Win32,61.50818059,,,,,,,,,,,,,,,,,,,,,,,Figures/confident_green.png,Figures/faces/10.png,Figures/confident_green.png,Figures/faces/20.png,Figures/unconfident_red.png,Figures/faces/11.png,Figures/unconfident_red.png,Figures/faces/1.png,,,left,0.8173,0,24,24,19,1,
,,,,,,,,,,JA23,,2021-09-23_18h59.49.273,beads_social_exp,2021.2.0,Win32,61.50818059,,,,,,,,,,,,,,,,,,,,,,,Figures/confident_red.png,Figures/faces/2.png,Figures/confident_red.png,Figures/faces/12.png,Figures/confident_red.png,Figures/faces/13.png,Figures/confident_red.png,Figures/faces/3.png,,,left,1.31,0,25,25,31,1,
,,,,,,,,,,JA23,,2021-09-23_18h59.49.273,beads_social_exp,2021.2.0,Win32,61.50818059,,,,,,,,,,,,,,,,,,,,,,,Figures/confident_green.png,Figures/faces/2.png,Figures/confident_green.png,Figures/faces/12.png,Figures/confident_green.png,Figures/faces/13.png,Figures/unconfident_red.png,Figures/faces/3.png,,,left,1.7003,0,26,26,11,1,
,,,,,,,,,,JA23,,2021-09-23_18h59.49.273,beads_social_exp,2021.2.0,Win32,61.50818059,,,,,,,,,,,,,,,,,,,,,,,Figures/confident_red.png,Figures/faces/10.png,Figures/confident_red.png,Figures/faces/20.png,Figures/confident_red.png,Figures/faces/11.png,Figures/confident_red.png,Figures/faces/1.png,,,right,0.5191,0,27,27,29,1,
,,,,,,,,,,JA23,,2021-09-23_18h59.49.273,beads_social_exp,2021.2.0,Win32,61.50818059,,,,,,,,,,,,,,,,,,,,,,,Figures/confident_red.png,Figures/faces/5.png,Figures/confident_red.png,Figures/faces/15.png,Figures/confident_red.png,Figures/faces/16.png,Figures/unconfident_green.png,Figures/faces/6.png,,,left,1.6839,0,28,28,24,1,
,,,,,,,,,,JA23,,2021-09-23_18h59.49.273,beads_social_exp,2021.2.0,Win32,61.50818059,,,,,,,,,,,,,,,,,,,,,,,Figures/confident_red.png,Figures/faces/4.png,Figures/confident_red.png,Figures/faces/14.png,Figures/confident_red.png,Figures/faces/15.png,Figures/confident_red.png,Figures/faces/5.png,,,left,0.4664,0,29,29,33,1,
,,,,,,,,,,JA23,,2021-09-23_18h59.49.273,beads_social_exp,2021.2.0,Win32,61.50818059,,,,,,,,,,,,,,,,,,,,,,,Figures/confident_green.png,Figures/faces/4.png,Figures/confident_green.png,Figures/faces/14.png,Figures/confident_green.png,Figures/faces/15.png,Figures/confident_green.png,Figures/faces/5.png,,,right,2.2422,0,30,30,3,1,
,,,,,,,,,,JA23,,2021-09-23_18h59.49.273,beads_social_exp,2021.2.0,Win32,61.50818059,,,,,,,,,,,,,,,,,,,,,,,Figures/confident_red.png,Figures/faces/4.png,Figures/confident_red.png,Figures/faces/14.png,Figures/confident_red.png,Figures/faces/15.png,Figures/unconfident_green.png,Figures/faces/5.png,,,right,1.4158,0,31,31,23,1,
,,,,,,,,,,JA23,,2021-09-23_18h59.49.273,beads_social_exp,2021.2.0,Win32,61.50818059,,,,,,,,,,,,,,,,,,,,,,,Figures/confident_green.png,Figures/faces/3.png,Figures/confident_green.png,Figures/faces/13.png,Figures/confident_green.png,Figures/faces/14.png,Figures/unconfident_red.png,Figures/faces/4.png,,,left,0.8415,0,32,32,12,1,
,,,,,,,,,,JA23,,2021-09-23_18h59.49.273,beads_social_exp,2021.2.0,Win32,61.50818059,,,,,,,,,,,,,,,,,,,,,,,Figures/confident_green.png,Figures/faces/1.png,Figures/confident_green.png,Figures/faces/11.png,Figures/confident_green.png,Figures/faces/12.png,Figures/confident_green.png,Figures/faces/2.png,,,right,1.1339,0,33,33,0,1,
,,,,,,,,,,JA23,,2021-09-23_18h59.49.273,beads_social_exp,2021.2.0,Win32,61.50818059,,,,,,,,,,,,,,,,,,,,,,,Figures/confident_red.png,Figures/faces/5.png,Figures/confident_red.png,Figures/faces/15.png,Figures/confident_red.png,Figures/faces/16.png,Figures/confident_red.png,Figures/faces/6.png,,,left,0.793,0,34,34,34,1,
,,,,,,,,,,JA23,,2021-09-23_18h59.49.273,beads_social_exp,2021.2.0,Win32,61.50818059,,,,,,,,,,,,,,,,,,,,,,,Figures/confident_green.png,Figures/faces/8.png,Figures/confident_green.png,Figures/faces/18.png,Figures/unconfident_red.png,Figures/faces/19.png,Figures/unconfident_red.png,Figures/faces/9.png,,,right,1.7831,1,0,35,17,1,
,,,,,,,,,,JA23,,2021-09-23_18h59.49.273,beads_social_exp,2021.2.0,Win32,61.50818059,,,,,,,,,,,,,,,,,,,,,,,Figures/confident_red.png,Figures/faces/2.png,Figures/confident_red.png,Figures/faces/12.png,Figures/confident_red.png,Figures/faces/13.png,Figures/confident_red.png,Figures/faces/3.png,,,left,0.9529,1,1,36,31,1,
,,,,,,,,,,JA23,,2021-09-23_18h59.49.273,beads_social_exp,2021.2.0,Win32,61.50818059,,,,,,,,,,,,,,,,,,,,,,,Figures/confident_green.png,Figures/faces/3.png,Figures/confident_green.png,Figures/faces/13.png,Figures/confident_green.png,Figures/faces/14.png,Figures/unconfident_red.png,Figures/faces/4.png,,,left,0.9725,1,2,37,12,1,
,,,,,,,,,,JA23,,2021-09-23_18h59.49.273,beads_social_exp,2021.2.0,Win32,61.50818059,,,,,,,,,,,,,,,,,,,,,,,Figures/confident_green.png,Figures/faces/7.png,Figures/confident_green.png,Figures/faces/17.png,Figures/unconfident_red.png,Figures/faces/18.png,Figures/unconfident_red.png,Figures/faces/8.png,,,right,1.5706,1,3,38,16,1,
,,,,,,,,,,JA23,,2021-09-23_18h59.49.273,beads_social_exp,2021.2.0,Win32,61.50818059,,,,,,,,,,,,,,,,,,,,,,,Figures/confident_green.png,Figures/faces/9.png,Figures/confident_green.png,Figures/faces/19.png,Figures/unconfident_red.png,Figures/faces/20.png,Figures/unconfident_red.png,Figures/faces/10.png,,,left,2.233,1,4,39,18,1,
,,,,,,,,,,JA23,,2021-09-23_18h59.49.273,beads_social_exp,2021.2.0,Win32,61.50818059,,,,,,,,,,,,,,,,,,,,,,,Figures/confident_red.png,Figures/faces/7.png,Figures/confident_red.png,Figures/faces/17.png,Figures/confident_red.png,Figures/faces/18.png,Figures/unconfident_green.png,Figures/faces/8.png,,,left,0.8449,1,5,40,26,1,
,,,,,,,,,,JA23,,2021-09-23_18h59.49.273,beads_social_exp,2021.2.0,Win32,61.50818059,,,,,,,,,,,,,,,,,,,,,,,Figures/confident_red.png,Figures/faces/5.png,Figures/confident_red.png,Figures/faces/15.png,Figures/confident_red.png,Figures/faces/16.png,Figures/confident_red.png,Figures/faces/6.png,,,left,1.1499,1,6,41,34,1,
,,,,,,,,,,JA23,,2021-09-23_18h59.49.273,beads_social_exp,2021.2.0,Win32,61.50818059,,,,,,,,,,,,,,,,,,,,,,,Figures/confident_green.png,Figures/faces/4.png,Figures/confident_green.png,Figures/faces/14.png,Figures/confident_green.png,Figures/faces/15.png,Figures/unconfident_red.png,Figures/faces/5.png,,,left,1.1211,1,7,42,13,1,
,,,,,,,,,,JA23,,2021-09-23_18h59.49.273,beads_social_exp,2021.2.0,Win32,61.50818059,,,,,,,,,,,,,,,,,,,,,,,Figures/confident_green.png,Figures/faces/3.png,Figures/confident_green.png,Figures/faces/13.png,Figures/confident_green.png,Figures/faces/14.png,Figures/confident_green.png,Figures/faces/4.png,,,right,1.1999,1,8,43,2,1,
,,,,,,,,,,JA23,,2021-09-23_18h59.49.273,beads_social_exp,2021.2.0,Win32,61.50818059,,,,,,,,,,,,,,,,,,,,,,,Figures/confident_green.png,Figures/faces/9.png,Figures/confident_green.png,Figures/faces/19.png,Figures/confident_green.png,Figures/faces/20.png,Figures/unconfident_red.png,Figures/faces/10.png,,,left,0.7726,1,9,44,8,1,
,,,,,,,,,,JA23,,2021-09-23_18h59.49.273,beads_social_exp,2021.2.0,Win32,61.50818059,,,,,,,,,,,,,,,,,,,,,,,Figures/confident_red.png,Figures/faces/4.png,Figures/confident_red.png,Figures/faces/14.png,Figures/confident_red.png,Figures/faces/15.png,Figures/confident_red.png,Figures/faces/5.png,,,left,1.0721,1,10,45,33,1,
,,,,,,,,,,JA23,,2021-09-23_18h59.49.273,beads_social_exp,2021.2.0,Win32,61.50818059,,,,,,,,,,,,,,,,,,,,,,,Figures/confident_green.png,Figures/faces/6.png,Figures/confident_green.png,Figures/faces/16.png,Figures/unconfident_red.png,Figures/faces/17.png,Figures/unconfident_red.png,Figures/faces/7.png,,,right,0.8507,1,11,46,15,1,
,,,,,,,,,,JA23,,2021-09-23_18h59.49.273,beads_social_exp,2021.2.0,Win32,61.50818059,,,,,,,,,,,,,,,,,,,,,,,Figures/confident_red.png,Figures/faces/3.png,Figures/confident_red.png,Figures/faces/13.png,Figures/confident_red.png,Figures/faces/14.png,Figures/confident_red.png,Figures/faces/4.png,,,left,1.1504,1,12,47,32,1,
,,,,,,,,,,JA23,,2021-09-23_18h59.49.273,beads_social_exp,2021.2.0,Win32,61.50818059,,,,,,,,,,,,,,,,,,,,,,,Figures/confident_green.png,Figures/faces/1.png,Figures/confident_green.png,Figures/faces/11.png,Figures/unconfident_red.png,Figures/faces/12.png,Figures/unconfident_red.png,Figures/faces/2.png,,,left,0.5683,1,13,48,20,1,
,,,,,,,,,,JA23,,2021-09-23_18h59.49.273,beads_social_exp,2021.2.0,Win32,61.50818059,,,,,,,,,,,,,,,,,,,,,,,Figures/confident_red.png,Figures/faces/4.png,Figures/confident_red.png,Figures/faces/14.png,Figures/confident_red.png,Figures/faces/15.png,Figures/unconfident_green.png,Figures/faces/5.png,,,right,0.9263,1,14,49,23,1,
,,,,,,,,,,JA23,,2021-09-23_18h59.49.273,beads_social_exp,2021.2.0,Win32,61.50818059,,,,,,,,,,,,,,,,,,,,,,,Figures/confident_red.png,Figures/faces/10.png,Figures/confident_red.png,Figures/faces/20.png,Figures/confident_red.png,Figures/faces/11.png,Figures/confident_red.png,Figures/faces/1.png,,,right,0.6009,1,15,50,29,1,
,,,,,,,,,,JA23,,2021-09-23_18h59.49.273,beads_social_exp,2021.2.0,Win32,61.50818059,,,,,,,,,,,,,,,,,,,,,,,Figures/confident_red.png,Figures/faces/1.png,Figures/confident_red.png,Figures/faces/11.png,Figures/confident_red.png,Figures/faces/12.png,Figures/confident_red.png,Figures/faces/2.png,,,right,0.8182,1,16,51,30,1,
,,,,,,,,,,JA23,,2021-09-23_18h59.49.273,beads_social_exp,2021.2.0,Win32,61.50818059,,,,,,,,,,,,,,,,,,,,,,,Figures/confident_green.png,Figures/faces/5.png,Figures/confident_green.png,Figures/faces/15.png,Figures/confident_green.png,Figures/faces/16.png,Figures/confident_green.png,Figures/faces/6.png,,,left,1.3239,1,17,52,4,1,
,,,,,,,,,,JA23,,2021-09-23_18h59.49.273,beads_social_exp,2021.2.0,Win32,61.50818059,,,,,,,,,,,,,,,,,,,,,,,Figures/confident_red.png,Figures/faces/5.png,Figures/confident_red.png,Figures/faces/15.png,Figures/confident_red.png,Figures/faces/16.png,Figures/unconfident_green.png,Figures/faces/6.png,,,left,1.9689,1,18,53,24,1,
,,,,,,,,,,JA23,,2021-09-23_18h59.49.273,beads_social_exp,2021.2.0,Win32,61.50818059,,,,,,,,,,,,,,,,,,,,,,,Figures/confident_red.png,Figures/faces/6.png,Figures/confident_red.png,Figures/faces/16.png,Figures/confident_red.png,Figures/faces/17.png,Figures/unconfident_green.png,Figures/faces/7.png,,,left,0.6002,1,19,54,25,1,
,,,,,,,,,,JA23,,2021-09-23_18h59.49.273,beads_social_exp,2021.2.0,Win32,61.50818059,,,,,,,,,,,,,,,,,,,,,,,Figures/confident_red.png,Figures/faces/2.png,Figures/confident_red.png,Figures/faces/12.png,Figures/confident_red.png,Figures/faces/13.png,Figures/unconfident_green.png,Figures/faces/3.png,,,right,0.3189,1,20,55,21,1,
,,,,,,,,,,JA23,,2021-09-23_18h59.49.273,beads_social_exp,2021.2.0,Win32,61.50818059,,,,,,,,,,,,,,,,,,,,,,,Figures/confident_red.png,Figures/faces/3.png,Figures/confident_red.png,Figures/faces/13.png,Figures/confident_red.png,Figures/faces/14.png,Figures/unconfident_green.png,Figures/faces/4.png,,,right,0.4762,1,21,56,22,1,
,,,,,,,,,,JA23,,2021-09-23_18h59.49.273,beads_social_exp,2021.2.0,Win32,61.50818059,,,,,,,,,,,,,,,,,,,,,,,Figures/confident_red.png,Figures/faces/9.png,Figures/confident_red.png,Figures/faces/19.png,Figures/confident_red.png,Figures/faces/20.png,Figures/confident_red.png,Figures/faces/10.png,,,right,0.6415,1,22,57,28,1,
,,,,,,,,,,JA23,,2021-09-23_18h59.49.273,beads_social_exp,2021.2.0,Win32,61.50818059,,,,,,,,,,,,,,,,,,,,,,,Figures/confident_green.png,Figures/faces/6.png,Figures/confident_green.png,Figures/faces/16.png,Figures/confident_green.png,Figures/faces/17.png,Figures/confident_green.png,Figures/faces/7.png,,,left,0.3533,1,23,58,5,1,
,,,,,,,,,,JA23,,2021-09-23_18h59.49.273,beads_social_exp,2021.2.0,Win32,61.50818059,,,,,,,,,,,,,,,,,,,,,,,Figures/confident_green.png,Figures/faces/5.png,Figures/confident_green.png,Figures/faces/15.png,Figures/unconfident_red.png,Figures/faces/16.png,Figures/unconfident_red.png,Figures/faces/6.png,,,right,0.5364,1,24,59,14,1,
,,,,,,,,,,JA23,,2021-09-23_18h59.49.273,beads_social_exp,2021.2.0,Win32,61.50818059,,,,,,,,,,,,,,,,,,,,,,,Figures/confident_green.png,Figures/faces/1.png,Figures/confident_green.png,Figures/faces/11.png,Figures/confident_green.png,Figures/faces/12.png,Figures/unconfident_red.png,Figures/faces/2.png,,,right,0.6174,1,25,60,10,1,
,,,,,,,,,,JA23,,2021-09-23_18h59.49.273,beads_social_exp,2021.2.0,Win32,61.50818059,,,,,,,,,,,,,,,,,,,,,,,Figures/confident_green.png,Figures/faces/10.png,Figures/confident_green.png,Figures/faces/20.png,Figures/confident_green.png,Figures/faces/11.png,Figures/unconfident_red.png,Figures/faces/1.png,,,right,0.673,1,26,61,9,1,
,,,,,,,,,,JA23,,2021-09-23_18h59.49.273,beads_social_exp,2021.2.0,Win32,61.50818059,,,,,,,,,,,,,,,,,,,,,,,Figures/confident_green.png,Figures/faces/2.png,Figures/confident_green.png,Figures/faces/12.png,Figures/confident_green.png,Figures/faces/13.png,Figures/unconfident_red.png,Figures/faces/3.png,,,left,0.6405,1,27,62,11,1,
,,,,,,,,,,JA23,,2021-09-23_18h59.49.273,beads_social_exp,2021.2.0,Win32,61.50818059,,,,,,,,,,,,,,,,,,,,,,,Figures/confident_green.png,Figures/faces/4.png,Figures/confident_green.png,Figures/faces/14.png,Figures/confident_green.png,Figures/faces/15.png,Figures/confident_green.png,Figures/faces/5.png,,,right,1.3165,1,28,63,3,1,
,,,,,,,,,,JA23,,2021-09-23_18h59.49.273,beads_social_exp,2021.2.0,Win32,61.50818059,,,,,,,,,,,,,,,,,,,,,,,Figures/confident_green.png,Figures/faces/1.png,Figures/confident_green.png,Figures/faces/11.png,Figures/confident_green.png,Figures/faces/12.png,Figures/confident_green.png,Figures/faces/2.png,,,right,0.4012,1,29,64,0,1,
,,,,,,,,,,JA23,,2021-09-23_18h59.49.273,beads_social_exp,2021.2.0,Win32,61.50818059,,,,,,,,,,,,,,,,,,,,,,,Figures/confident_green.png,Figures/faces/7.png,Figures/confident_green.png,Figures/faces/17.png,Figures/confident_green.png,Figures/faces/18.png,Figures/confident_green.png,Figures/faces/8.png,,,left,0.4585,1,30,65,6,1,
,,,,,,,,,,JA23,,2021-09-23_18h59.49.273,beads_social_exp,2021.2.0,Win32,61.50818059,,,,,,,,,,,,,,,,,,,,,,,Figures/confident_green.png,Figures/faces/8.png,Figures/confident_green.png,Figures/faces/18.png,Figures/confident_green.png,Figures/faces/19.png,Figures/unconfident_red.png,Figures/faces/9.png,,,right,0.5063,1,31,66,7,1,
,,,,,,,,,,JA23,,2021-09-23_18h59.49.273,beads_social_exp,2021.2.0,Win32,61.50818059,,,,,,,,,,,,,,,,,,,,,,,Figures/confident_red.png,Figures/faces/8.png,Figures/confident_red.png,Figures/faces/18.png,Figures/confident_red.png,Figures/faces/19.png,Figures/unconfident_green.png,Figures/faces/9.png,,,left,0.4039,1,32,67,27,1,
,,,,,,,,,,JA23,,2021-09-23_18h59.49.273,beads_social_exp,2021.2.0,Win32,61.50818059,,,,,,,,,,,,,,,,,,,,,,,Figures/confident_green.png,Figures/faces/2.png,Figures/confident_green.png,Figures/faces/12.png,Figures/confident_green.png,Figures/faces/13.png,Figures/confident_green.png,Figures/faces/3.png,,,right,0.4812,1,33,68,1,1,
,,,,,,,,,,JA23,,2021-09-23_18h59.49.273,beads_social_exp,2021.2.0,Win32,61.50818059,,,,,,,,,,,,,,,,,,,,,,,Figures/confident_green.png,Figures/faces/10.png,Figures/confident_green.png,Figures/faces/20.png,Figures/unconfident_red.png,Figures/faces/11.png,Figures/unconfident_red.png,Figures/faces/1.png,,,left,0.5537,1,34,69,19,1,
,,,,,,,,,,JA23,,2021-09-23_18h59.49.273,beads_social_exp,2021.2.0,Win32,61.50818059,,,,,,,,,,,,,,,,,,,,,,,Figures/confident_green.png,Figures/faces/6.png,Figures/confident_green.png,Figures/faces/16.png,Figures/unconfident_red.png,Figures/faces/17.png,Figures/unconfident_red.png,Figures/faces/7.png,,,right,0.5011,2,0,70,15,1,
,,,,,,,,,,JA23,,2021-09-23_18h59.49.273,beads_social_exp,2021.2.0,Win32,61.50818059,,,,,,,,,,,,,,,,,,,,,,,Figures/confident_red.png,Figures/faces/3.png,Figures/confident_red.png,Figures/faces/13.png,Figures/confident_red.png,Figures/faces/14.png,Figures/unconfident_green.png,Figures/faces/4.png,,,right,0.4101,2,1,71,22,1,
,,,,,,,,,,JA23,,2021-09-23_18h59.49.273,beads_social_exp,2021.2.0,Win32,61.50818059,,,,,,,,,,,,,,,,,,,,,,,Figures/confident_green.png,Figures/faces/1.png,Figures/confident_green.png,Figures/faces/11.png,Figures/confident_green.png,Figures/faces/12.png,Figures/unconfident_red.png,Figures/faces/2.png,,,right,1.2661,2,2,72,10,1,
,,,,,,,,,,JA23,,2021-09-23_18h59.49.273,beads_social_exp,2021.2.0,Win32,61.50818059,,,,,,,,,,,,,,,,,,,,,,,Figures/confident_red.png,Figures/faces/8.png,Figures/confident_red.png,Figures/faces/18.png,Figures/confident_red.png,Figures/faces/19.png,Figures/unconfident_green.png,Figures/faces/9.png,,,left,0.4173,2,3,73,27,1,
,,,,,,,,,,JA23,,2021-09-23_18h59.49.273,beads_social_exp,2021.2.0,Win32,61.50818059,,,,,,,,,,,,,,,,,,,,,,,Figures/confident_green.png,Figures/faces/10.png,Figures/confident_green.png,Figures/faces/20.png,Figures/unconfident_red.png,Figures/faces/11.png,Figures/unconfident_red.png,Figures/faces/1.png,,,left,0.5846,2,4,74,19,1,
,,,,,,,,,,JA23,,2021-09-23_18h59.49.273,beads_social_exp,2021.2.0,Win32,61.50818059,,,,,,,,,,,,,,,,,,,,,,,Figures/confident_red.png,Figures/faces/9.png,Figures/confident_red.png,Figures/faces/19.png,Figures/confident_red.png,Figures/faces/20.png,Figures/confident_red.png,Figures/faces/10.png,,,right,0.5007,2,5,75,28,1,
,,,,,,,,,,JA23,,2021-09-23_18h59.49.273,beads_social_exp,2021.2.0,Win32,61.50818059,,,,,,,,,,,,,,,,,,,,,,,Figures/confident_green.png,Figures/faces/6.png,Figures/confident_green.png,Figures/faces/16.png,Figures/confident_green.png,Figures/faces/17.png,Figures/confident_green.png,Figures/faces/7.png,,,left,0.4369,2,6,76,5,1,
,,,,,,,,,,JA23,,2021-09-23_18h59.49.273,beads_social_exp,2021.2.0,Win32,61.50818059,,,,,,,,,,,,,,,,,,,,,,,Figures/confident_green.png,Figures/faces/1.png,Figures/confident_green.png,Figures/faces/11.png,Figures/confident_green.png,Figures/faces/12.png,Figures/confident_green.png,Figures/faces/2.png,,,right,0.5877,2,7,77,0,1,
,,,,,,,,,,JA23,,2021-09-23_18h59.49.273,beads_social_exp,2021.2.0,Win32,61.50818059,,,,,,,,,,,,,,,,,,,,,,,Figures/confident_red.png,Figures/faces/1.png,Figures/confident_red.png,Figures/faces/11.png,Figures/confident_red.png,Figures/faces/12.png,Figures/confident_red.png,Figures/faces/2.png,,,right,0.4255,2,8,78,30,1,
,,,,,,,,,,JA23,,2021-09-23_18h59.49.273,beads_social_exp,2021.2.0,Win32,61.50818059,,,,,,,,,,,,,,,,,,,,,,,Figures/confident_green.png,Figures/faces/4.png,Figures/confident_green.png,Figures/faces/14.png,Figures/confident_green.png,Figures/faces/15.png,Figures/unconfident_red.png,Figures/faces/5.png,,,left,0.5255,2,9,79,13,1,
,,,,,,,,,,JA23,,2021-09-23_18h59.49.273,beads_social_exp,2021.2.0,Win32,61.50818059,,,,,,,,,,,,,,,,,,,,,,,Figures/confident_red.png,Figures/faces/2.png,Figures/confident_red.png,Figures/faces/12.png,Figures/confident_red.png,Figures/faces/13.png,Figures/unconfident_green.png,Figures/faces/3.png,,,right,0.3662,2,10,80,21,1,
,,,,,,,,,,JA23,,2021-09-23_18h59.49.273,beads_social_exp,2021.2.0,Win32,61.50818059,,,,,,,,,,,,,,,,,,,,,,,Figures/confident_red.png,Figures/faces/3.png,Figures/confident_red.png,Figures/faces/13.png,Figures/confident_red.png,Figures/faces/14.png,Figures/confident_red.png,Figures/faces/4.png,,,left,1.2818,2,11,81,32,1,
,,,,,,,,,,JA23,,2021-09-23_18h59.49.273,beads_social_exp,2021.2.0,Win32,61.50818059,,,,,,,,,,,,,,,,,,,,,,,Figures/confident_green.png,Figures/faces/2.png,Figures/confident_green.png,Figures/faces/12.png,Figures/confident_green.png,Figures/faces/13.png,Figures/unconfident_red.png,Figures/faces/3.png,,,left,0.6939,2,12,82,11,1,
,,,,,,,,,,JA23,,2021-09-23_18h59.49.273,beads_social_exp,2021.2.0,Win32,61.50818059,,,,,,,,,,,,,,,,,,,,,,,Figures/confident_red.png,Figures/faces/4.png,Figures/confident_red.png,Figures/faces/14.png,Figures/confident_red.png,Figures/faces/15.png,Figures/confident_red.png,Figures/faces/5.png,,,left,0.4171,2,13,83,33,1,
,,,,,,,,,,JA23,,2021-09-23_18h59.49.273,beads_social_exp,2021.2.0,Win32,61.50818059,,,,,,,,,,,,,,,,,,,,,,,Figures/confident_green.png,Figures/faces/2.png,Figures/confident_green.png,Figures/faces/12.png,Figures/confident_green.png,Figures/faces/13.png,Figures/confident_green.png,Figures/faces/3.png,,,right,0.4895,2,14,84,1,1,
,,,,,,,,,,JA23,,2021-09-23_18h59.49.273,beads_social_exp,2021.2.0,Win32,61.50818059,,,,,,,,,,,,,,,,,,,,,,,Figures/confident_green.png,Figures/faces/7.png,Figures/confident_green.png,Figures/faces/17.png,Figures/confident_green.png,Figures/faces/18.png,Figures/confident_green.png,Figures/faces/8.png,,,left,0.3673,2,15,85,6,1,
,,,,,,,,,,JA23,,2021-09-23_18h59.49.273,beads_social_exp,2021.2.0,Win32,61.50818059,,,,,,,,,,,,,,,,,,,,,,,Figures/confident_green.png,Figures/faces/4.png,Figures/confident_green.png,Figures/faces/14.png,Figures/confident_green.png,Figures/faces/15.png,Figures/confident_green.png,Figures/faces/5.png,,,right,1.6268,2,16,86,3,1,
,,,,,,,,,,JA23,,2021-09-23_18h59.49.273,beads_social_exp,2021.2.0,Win32,61.50818059,,,,,,,,,,,,,,,,,,,,,,,Figures/confident_red.png,Figures/faces/5.png,Figures/confident_red.png,Figures/faces/15.png,Figures/confident_red.png,Figures/faces/16.png,Figures/confident_red.png,Figures/faces/6.png,,,left,0.4883,2,17,87,34,1,
,,,,,,,,,,JA23,,2021-09-23_18h59.49.273,beads_social_exp,2021.2.0,Win32,61.50818059,,,,,,,,,,,,,,,,,,,,,,,Figures/confident_green.png,Figures/faces/9.png,Figures/confident_green.png,Figures/faces/19.png,Figures/unconfident_red.png,Figures/faces/20.png,Figures/unconfident_red.png,Figures/faces/10.png,,,left,1.2542,2,18,88,18,1,
,,,,,,,,,,JA23,,2021-09-23_18h59.49.273,beads_social_exp,2021.2.0,Win32,61.50818059,,,,,,,,,,,,,,,,,,,,,,,Figures/confident_green.png,Figures/faces/1.png,Figures/confident_green.png,Figures/faces/11.png,Figures/unconfident_red.png,Figures/faces/12.png,Figures/unconfident_red.png,Figures/faces/2.png,,,left,0.9836,2,19,89,20,1,
,,,,,,,,,,JA23,,2021-09-23_18h59.49.273,beads_social_exp,2021.2.0,Win32,61.50818059,,,,,,,,,,,,,,,,,,,,,,,Figures/confident_green.png,Figures/faces/3.png,Figures/confident_green.png,Figures/faces/13.png,Figures/confident_green.png,Figures/faces/14.png,Figures/unconfident_red.png,Figures/faces/4.png,,,left,0.5413,2,20,90,12,1,
,,,,,,,,,,JA23,,2021-09-23_18h59.49.273,beads_social_exp,2021.2.0,Win32,61.50818059,,,,,,,,,,,,,,,,,,,,,,,Figures/confident_green.png,Figures/faces/8.png,Figures/confident_green.png,Figures/faces/18.png,Figures/confident_green.png,Figures/faces/19.png,Figures/unconfident_red.png,Figures/faces/9.png,,,right,0.4781,2,21,91,7,1,
,,,,,,,,,,JA23,,2021-09-23_18h59.49.273,beads_social_exp,2021.2.0,Win32,61.50818059,,,,,,,,,,,,,,,,,,,,,,,Figures/confident_red.png,Figures/faces/5.png,Figures/confident_red.png,Figures/faces/15.png,Figures/confident_red.png,Figures/faces/16.png,Figures/unconfident_green.png,Figures/faces/6.png,,,left,1.0035,2,22,92,24,1,
,,,,,,,,,,JA23,,2021-09-23_18h59.49.273,beads_social_exp,2021.2.0,Win32,61.50818059,,,,,,,,,,,,,,,,,,,,,,,Figures/confident_red.png,Figures/faces/6.png,Figures/confident_red.png,Figures/faces/16.png,Figures/confident_red.png,Figures/faces/17.png,Figures/unconfident_green.png,Figures/faces/7.png,,,left,0.5734,2,23,93,25,1,
,,,,,,,,,,JA23,,2021-09-23_18h59.49.273,beads_social_exp,2021.2.0,Win32,61.50818059,,,,,,,,,,,,,,,,,,,,,,,Figures/confident_red.png,Figures/faces/2.png,Figures/confident_red.png,Figures/faces/12.png,Figures/confident_red.png,Figures/faces/13.png,Figures/confident_red.png,Figures/faces/3.png,,,left,1.7626,2,24,94,31,1,
,,,,,,,,,,JA23,,2021-09-23_18h59.49.273,beads_social_exp,2021.2.0,Win32,61.50818059,,,,,,,,,,,,,,,,,,,,,,,Figures/confident_green.png,Figures/faces/5.png,Figures/confident_green.png,Figures/faces/15.png,Figures/unconfident_red.png,Figures/faces/16.png,Figures/unconfident_red.png,Figures/faces/6.png,,,right,0.4725,2,25,95,14,1,
,,,,,,,,,,JA23,,2021-09-23_18h59.49.273,beads_social_exp,2021.2.0,Win32,61.50818059,,,,,,,,,,,,,,,,,,,,,,,Figures/confident_red.png,Figures/faces/4.png,Figures/confident_red.png,Figures/faces/14.png,Figures/confident_red.png,Figures/faces/15.png,Figures/unconfident_green.png,Figures/faces/5.png,,,right,0.9178,2,26,96,23,1,
,,,,,,,,,,JA23,,2021-09-23_18h59.49.273,beads_social_exp,2021.2.0,Win32,61.50818059,,,,,,,,,,,,,,,,,,,,,,,Figures/confident_green.png,Figures/faces/9.png,Figures/confident_green.png,Figures/faces/19.png,Figures/confident_green.png,Figures/faces/20.png,Figures/unconfident_red.png,Figures/faces/10.png,,,right,0.518,2,27,97,8,1,
,,,,,,,,,,JA23,,2021-09-23_18h59.49.273,beads_social_exp,2021.2.0,Win32,61.50818059,,,,,,,,,,,,,,,,,,,,,,,Figures/confident_green.png,Figures/faces/3.png,Figures/confident_green.png,Figures/faces/13.png,Figures/confident_green.png,Figures/faces/14.png,Figures/confident_green.png,Figures/faces/4.png,,,right,0.4506,2,28,98,2,1,
,,,,,,,,,,JA23,,2021-09-23_18h59.49.273,beads_social_exp,2021.2.0,Win32,61.50818059,,,,,,,,,,,,,,,,,,,,,,,Figures/confident_green.png,Figures/faces/8.png,Figures/confident_green.png,Figures/faces/18.png,Figures/unconfident_red.png,Figures/faces/19.png,Figures/unconfident_red.png,Figures/faces/9.png,,,right,2.5999,2,29,99,17,1,
,,,,,,,,,,JA23,,2021-09-23_18h59.49.273,beads_social_exp,2021.2.0,Win32,61.50818059,,,,,,,,,,,,,,,,,,,,,,,Figures/confident_red.png,Figures/faces/10.png,Figures/confident_red.png,Figures/faces/20.png,Figures/confident_red.png,Figures/faces/11.png,Figures/confident_red.png,Figures/faces/1.png,,,right,0.7844,2,30,100,29,1,
,,,,,,,,,,JA23,,2021-09-23_18h59.49.273,beads_social_exp,2021.2.0,Win32,61.50818059,,,,,,,,,,,,,,,,,,,,,,,Figures/confident_green.png,Figures/faces/10.png,Figures/confident_green.png,Figures/faces/20.png,Figures/confident_green.png,Figures/faces/11.png,Figures/unconfident_red.png,Figures/faces/1.png,,,right,0.453,2,31,101,9,1,
,,,,,,,,,,JA23,,2021-09-23_18h59.49.273,beads_social_exp,2021.2.0,Win32,61.50818059,,,,,,,,,,,,,,,,,,,,,,,Figures/confident_red.png,Figures/faces/7.png,Figures/confident_red.png,Figures/faces/17.png,Figures/confident_red.png,Figures/faces/18.png,Figures/unconfident_green.png,Figures/faces/8.png,,,left,0.5525,2,32,102,26,1,
,,,,,,,,,,JA23,,2021-09-23_18h59.49.273,beads_social_exp,2021.2.0,Win32,61.50818059,,,,,,,,,,,,,,,,,,,,,,,Figures/confident_green.png,Figures/faces/5.png,Figures/confident_green.png,Figures/faces/15.png,Figures/confident_green.png,Figures/faces/16.png,Figures/confident_green.png,Figures/faces/6.png,,,left,0.6552,2,33,103,4,1,
,,,,,,,,,,JA23,,2021-09-23_18h59.49.273,beads_social_exp,2021.2.0,Win32,61.50818059,,,,,,,,,,,,,,,,,,,,,,,Figures/confident_green.png,Figures/faces/7.png,Figures/confident_green.png,Figures/faces/17.png,Figures/unconfident_red.png,Figures/faces/18.png,Figures/unconfident_red.png,Figures/faces/8.png,,,right,0.5024,2,34,104,16,1,
,,,,,,,,,,JA23,,2021-09-23_18h59.49.273,beads_social_exp,2021.2.0,Win32,61.50818059,,,,,,,,,,,,,,,,,,,,,,,,,,,,,,,,,,,,,,,,
