intro_loop.thisRepN,intro_loop.thisTrialN,intro_loop.thisN,intro_loop.thisIndex,intro_loop.ran,Figure,Figure2,Figure3,Figure4,Text,participant,session,date,expName,psychopyVersion,OS,frameRate,key_resp.keys,key_resp.rt,confidence_response.keys,confidence_response.rt,practice_trials.thisRepN,practice_trials.thisTrialN,practice_trials.thisN,practice_trials.thisIndex,practice_trials.ran,beads_image,intro_agents.thisRepN,intro_agents.thisTrialN,intro_agents.thisN,intro_agents.thisIndex,intro_agents.ran,key_resp1.keys,key_resp1.rt,trials.thisRepN,trials.thisTrialN,trials.thisN,trials.thisIndex,trials.ran,agent1,agent1_face,agent2,agent2_face,agent3,agent3_face,agent4,agent4_face,key_resp_4.keys,key_resp_4.rt,participant_decision.keys,participant_decision.rt,trials_real.thisRepN,trials_real.thisTrialN,trials_real.thisN,trials_real.thisIndex,trials_real.ran,key_resp_2.keys
0,0,0,0,1,Figures/blank_image.png,Figures/blank_image.png,Figures/blank_image.png,Figures/blank_image.png,"The experiment you will perform is a variation on a task known as the ""beads task"".",TW01,,2021-09-23_23h24.25.026,beads_social_exp,2021.2.0,Win32,59.88741167,,,,,,,,,,,,,,,,,,,,,,,,,,,,,,,,,,,,,,,,
0,1,1,1,1,Figures/all_jars.png,Figures/blank_image.png,Figures/blank_image.png,Figures/blank_image.png,"In this variant of the experiment, there are 9 jars containing various proportions of red and green beads.",TW01,,2021-09-23_23h24.25.026,beads_social_exp,2021.2.0,Win32,59.88741167,,,,,,,,,,,,,,,,,,,,,,,,,,,,,,,,,,,,,,,,
0,2,2,2,1,Figures/jar_covered.png,Figures/blank_image.png,Figures/blank_image.png,Figures/blank_image.png,"One jar is chosen at random and covered, hiding the beads.",TW01,,2021-09-23_23h24.25.026,beads_social_exp,2021.2.0,Win32,59.88741167,,,,,,,,,,,,,,,,,,,,,,,,,,,,,,,,,,,,,,,,
0,3,3,3,1,Figures/jar_covered.png,Figures/sample_1_red.png,Figures/blank_image.png,Figures/hand_front.png,8 beads are randomly drawn from this jar.,TW01,,2021-09-23_23h24.25.026,beads_social_exp,2021.2.0,Win32,59.88741167,,,,,,,,,,,,,,,,,,,,,,,,,,,,,,,,,,,,,,,,
0,4,4,4,1,Figures/jar_covered.png,Figures/sample_1_red.png,Figures/random_bead.png,Figures/hand_front.png,A new bead will then be drawn from the jar.,TW01,,2021-09-23_23h24.25.026,beads_social_exp,2021.2.0,Win32,59.88741167,,,,,,,,,,,,,,,,,,,,,,,,,,,,,,,,,,,,,,,,
0,5,5,5,1,Figures/jar_covered.png,Figures/sample_1_red.png,Figures/random_bead.png,Figures/hand_front.png,Your task is to guess what colour (red or green) this next bead will be.,TW01,,2021-09-23_23h24.25.026,beads_social_exp,2021.2.0,Win32,59.88741167,,,,,,,,,,,,,,,,,,,,,,,,,,,,,,,,,,,,,,,,
0,6,6,6,1,Figures/blank_image.png,Figures/blank_image.png,Figures/blank_image.png,Figures/blank_image.png,You will perform this experiment with four other (simulated) participants.,TW01,,2021-09-23_23h24.25.026,beads_social_exp,2021.2.0,Win32,59.88741167,,,,,,,,,,,,,,,,,,,,,,,,,,,,,,,,,,,,,,,,
0,7,7,7,1,Figures/blank_image.png,Figures/blank_image.png,Figures/blank_image.png,Figures/blank_image.png,"You will be able to see their guess (but not their beads), as well as see how confident they are in their guess.",TW01,,2021-09-23_23h24.25.026,beads_social_exp,2021.2.0,Win32,59.88741167,,,,,,,,,,,,,,,,,,,,,,,,,,,,,,,,,,,,,,,,
0,8,8,8,1,Figures/blank_image.png,Figures/blank_image.png,Figures/blank_image.png,Figures/blank_image.png,"Unlike the original ""beads task"", you therefore have access to additional social information.",TW01,,2021-09-23_23h24.25.026,beads_social_exp,2021.2.0,Win32,59.88741167,,,,,,,,,,,,,,,,,,,,,,,,,,,,,,,,,,,,,,,,
0,9,9,9,1,Figures/blank_image.png,Figures/blank_image.png,Figures/blank_image.png,Figures/blank_image.png,We will perform 5 practice trials without the other participants to help you understand how the task works.,TW01,,2021-09-23_23h24.25.026,beads_social_exp,2021.2.0,Win32,59.88741167,,,,,,,,,,,,,,,,,,,,,,,,,,,,,,,,,,,,,,,,
,,,,,,,,,,TW01,,2021-09-23_23h24.25.026,beads_social_exp,2021.2.0,Win32,59.88741167,left,7.9422,left,10.1474,0,0,0,1,1,Figures/sample_3_red.png,,,,,,,,,,,,,,,,,,,,,,,,,,,,,,
,,,,,,,,,,TW01,,2021-09-23_23h24.25.026,beads_social_exp,2021.2.0,Win32,59.88741167,right,3.4777,right,2.1661,0,1,1,4,1,Figures/sample_6_red.png,,,,,,,,,,,,,,,,,,,,,,,,,,,,,,
,,,,,,,,,,TW01,,2021-09-23_23h24.25.026,beads_social_exp,2021.2.0,Win32,59.88741167,right,2.784,left,3.6011,0,2,2,2,1,Figures/sample_4_red.png,,,,,,,,,,,,,,,,,,,,,,,,,,,,,,
,,,,,,,,,,TW01,,2021-09-23_23h24.25.026,beads_social_exp,2021.2.0,Win32,59.88741167,left,2.1404,left,1.2098,0,3,3,0,1,Figures/sample_2_red.png,,,,,,,,,,,,,,,,,,,,,,,,,,,,,,
,,,,,,,,,,TW01,,2021-09-23_23h24.25.026,beads_social_exp,2021.2.0,Win32,59.88741167,left,3.0002,left,2.1237,0,4,4,3,1,Figures/sample_5_red.png,,,,,,,,,,,,,,,,,,,,,,,,,,,,,,
,,,,,Figures/blank_image.png,,,,"You will now perform the same experiment, but you will do so alongside four other (simulated) agents.",TW01,,2021-09-23_23h24.25.026,beads_social_exp,2021.2.0,Win32,59.88741167,,,,,,,,,,,0,0,0,0,1,,,,,,,,,,,,,,,,,,,,,,,,,
,,,,,Figures/blank_image.png,,,,"As before, each agent will draw 8 random beads, guess the colour of the next bead and state their confidence, then replace all the beads back into the jar.",TW01,,2021-09-23_23h24.25.026,beads_social_exp,2021.2.0,Win32,59.88741167,,,,,,,,,,,0,1,1,1,1,,,,,,,,,,,,,,,,,,,,,,,,,
,,,,,Figures/blank_image.png,,,,"All the agents, along with yourself, will be drawing beads from the same jar.",TW01,,2021-09-23_23h24.25.026,beads_social_exp,2021.2.0,Win32,59.88741167,,,,,,,,,,,0,2,2,2,1,,,,,,,,,,,,,,,,,,,,,,,,,
,,,,,Figures/blank_image.png,,,,Though do note that you will all replace the beads back into the jar before the next participant/agent has their turn.,TW01,,2021-09-23_23h24.25.026,beads_social_exp,2021.2.0,Win32,59.88741167,,,,,,,,,,,0,3,3,3,1,,,,,,,,,,,,,,,,,,,,,,,,,
,,,,,Figures/possible_agent_responses.png,,,,Their choice of colour and confidence will be shown using the above four images.,TW01,,2021-09-23_23h24.25.026,beads_social_exp,2021.2.0,Win32,59.88741167,,,,,,,,,,,0,4,4,4,1,,,,,,,,,,,,,,,,,,,,,,,,,
,,,,,Figures/possible_agent_responses.png,,,,You can therefore use the agents decisions to inform your own decision about the colour of the next bead.,TW01,,2021-09-23_23h24.25.026,beads_social_exp,2021.2.0,Win32,59.88741167,,,,,,,,,,,0,5,5,5,1,,,,,,,,,,,,,,,,,,,,,,,,,
,,,,,Figures/possible_agent_responses.png,,,,You will not need to state your confidence in this part of the experiment. You only need to guess the colour of the next bead.,TW01,,2021-09-23_23h24.25.026,beads_social_exp,2021.2.0,Win32,59.88741167,,,,,,,,,,,0,6,6,6,1,,,,,,,,,,,,,,,,,,,,,,,,,
,,,,,Figures/possible_agent_responses.png,,,,We will begin 10 practice trials.,TW01,,2021-09-23_23h24.25.026,beads_social_exp,2021.2.0,Win32,59.88741167,,,,,,,,,,,0,7,7,7,1,,,,,,,,,,,,,,,,,,,,,,,,,
,,,,,,,,,,TW01,,2021-09-23_23h24.25.026,beads_social_exp,2021.2.0,Win32,59.88741167,,,,,,,,,,,,,,,,right,3.7389,0,0,0,8,1,Figures/confident_red.png,Figures/faces/6.png,Figures/confident_red.png,Figures/faces/16.png,Figures/confident_red.png,Figures/faces/17.png,Figures/unconfident_green.png,Figures/faces/7.png,,,,,,,,,,
,,,,,,,,,,TW01,,2021-09-23_23h24.25.026,beads_social_exp,2021.2.0,Win32,59.88741167,,,,,,,,,,,,,,,,left,1.1429,0,1,1,0,1,Figures/confident_green.png,Figures/faces/1.png,Figures/confident_green.png,Figures/faces/11.png,Figures/confident_green.png,Figures/faces/12.png,Figures/confident_green.png,Figures/faces/2.png,,,,,,,,,,
,,,,,,,,,,TW01,,2021-09-23_23h24.25.026,beads_social_exp,2021.2.0,Win32,59.88741167,,,,,,,,,,,,,,,,right,4.1693,0,2,2,4,1,Figures/confident_green.png,Figures/faces/7.png,Figures/confident_green.png,Figures/faces/17.png,Figures/unconfident_red.png,Figures/faces/18.png,Figures/unconfident_red.png,Figures/faces/8.png,,,,,,,,,,
,,,,,,,,,,TW01,,2021-09-23_23h24.25.026,beads_social_exp,2021.2.0,Win32,59.88741167,,,,,,,,,,,,,,,,right,0.8959,0,3,3,9,1,Figures/confident_red.png,Figures/faces/5.png,Figures/confident_red.png,Figures/faces/15.png,Figures/confident_red.png,Figures/faces/16.png,Figures/confident_red.png,Figures/faces/6.png,,,,,,,,,,
,,,,,,,,,,TW01,,2021-09-23_23h24.25.026,beads_social_exp,2021.2.0,Win32,59.88741167,,,,,,,,,,,,,,,,right,2.6955,0,4,4,5,1,Figures/confident_green.png,Figures/faces/8.png,Figures/confident_green.png,Figures/faces/18.png,Figures/unconfident_red.png,Figures/faces/19.png,Figures/unconfident_red.png,Figures/faces/9.png,,,,,,,,,,
,,,,,,,,,,TW01,,2021-09-23_23h24.25.026,beads_social_exp,2021.2.0,Win32,59.88741167,,,,,,,,,,,,,,,,left,1.5174,0,5,5,3,1,Figures/confident_green.png,Figures/faces/1.png,Figures/confident_green.png,Figures/faces/11.png,Figures/confident_green.png,Figures/faces/12.png,Figures/unconfident_red.png,Figures/faces/2.png,,,,,,,,,,
,,,,,,,,,,TW01,,2021-09-23_23h24.25.026,beads_social_exp,2021.2.0,Win32,59.88741167,,,,,,,,,,,,,,,,left,2.213,0,6,6,1,1,Figures/confident_green.png,Figures/faces/5.png,Figures/confident_green.png,Figures/faces/15.png,Figures/confident_green.png,Figures/faces/16.png,Figures/confident_green.png,Figures/faces/6.png,,,,,,,,,,
,,,,,,,,,,TW01,,2021-09-23_23h24.25.026,beads_social_exp,2021.2.0,Win32,59.88741167,,,,,,,,,,,,,,,,left,1.3295,0,7,7,2,1,Figures/confident_green.png,Figures/faces/9.png,Figures/confident_green.png,Figures/faces/19.png,Figures/confident_green.png,Figures/faces/20.png,Figures/unconfident_red.png,Figures/faces/10.png,,,,,,,,,,
,,,,,,,,,,TW01,,2021-09-23_23h24.25.026,beads_social_exp,2021.2.0,Win32,59.88741167,,,,,,,,,,,,,,,,right,1.0674,0,8,8,7,1,Figures/confident_green.png,Figures/faces/10.png,Figures/confident_green.png,Figures/faces/20.png,Figures/unconfident_red.png,Figures/faces/11.png,Figures/unconfident_red.png,Figures/faces/1.png,,,,,,,,,,
,,,,,,,,,,TW01,,2021-09-23_23h24.25.026,beads_social_exp,2021.2.0,Win32,59.88741167,,,,,,,,,,,,,,,,left,1.6838,0,9,9,6,1,Figures/confident_green.png,Figures/faces/9.png,Figures/confident_green.png,Figures/faces/19.png,Figures/unconfident_red.png,Figures/faces/20.png,Figures/unconfident_red.png,Figures/faces/10.png,,,,,,,,,,
,,,,,,,,,,TW01,,2021-09-23_23h24.25.026,beads_social_exp,2021.2.0,Win32,59.88741167,,,,,,,,,,,,,,,,,,,,,,,Figures/confident_red.png,Figures/faces/6.png,Figures/confident_red.png,Figures/faces/16.png,Figures/confident_red.png,Figures/faces/17.png,Figures/unconfident_green.png,Figures/faces/7.png,space,10.8899,left,1.0959,0,0,0,25,1,
,,,,,,,,,,TW01,,2021-09-23_23h24.25.026,beads_social_exp,2021.2.0,Win32,59.88741167,,,,,,,,,,,,,,,,,,,,,,,Figures/confident_green.png,Figures/faces/1.png,Figures/confident_green.png,Figures/faces/11.png,Figures/unconfident_red.png,Figures/faces/12.png,Figures/unconfident_red.png,Figures/faces/2.png,,,right,0.8675,0,1,1,20,1,
,,,,,,,,,,TW01,,2021-09-23_23h24.25.026,beads_social_exp,2021.2.0,Win32,59.88741167,,,,,,,,,,,,,,,,,,,,,,,Figures/confident_green.png,Figures/faces/6.png,Figures/confident_green.png,Figures/faces/16.png,Figures/unconfident_red.png,Figures/faces/17.png,Figures/unconfident_red.png,Figures/faces/7.png,,,left,1.1813,0,2,2,15,1,
,,,,,,,,,,TW01,,2021-09-23_23h24.25.026,beads_social_exp,2021.2.0,Win32,59.88741167,,,,,,,,,,,,,,,,,,,,,,,Figures/confident_green.png,Figures/faces/1.png,Figures/confident_green.png,Figures/faces/11.png,Figures/confident_green.png,Figures/faces/12.png,Figures/unconfident_red.png,Figures/faces/2.png,,,left,0.9192,0,3,3,10,1,
,,,,,,,,,,TW01,,2021-09-23_23h24.25.026,beads_social_exp,2021.2.0,Win32,59.88741167,,,,,,,,,,,,,,,,,,,,,,,Figures/confident_green.png,Figures/faces/9.png,Figures/confident_green.png,Figures/faces/19.png,Figures/unconfident_red.png,Figures/faces/20.png,Figures/unconfident_red.png,Figures/faces/10.png,,,right,2.0239,0,4,4,18,1,
,,,,,,,,,,TW01,,2021-09-23_23h24.25.026,beads_social_exp,2021.2.0,Win32,59.88741167,,,,,,,,,,,,,,,,,,,,,,,Figures/confident_green.png,Figures/faces/8.png,Figures/confident_green.png,Figures/faces/18.png,Figures/confident_green.png,Figures/faces/19.png,Figures/unconfident_red.png,Figures/faces/9.png,,,right,2.1242,0,5,5,7,1,
,,,,,,,,,,TW01,,2021-09-23_23h24.25.026,beads_social_exp,2021.2.0,Win32,59.88741167,,,,,,,,,,,,,,,,,,,,,,,Figures/confident_green.png,Figures/faces/3.png,Figures/confident_green.png,Figures/faces/13.png,Figures/confident_green.png,Figures/faces/14.png,Figures/confident_green.png,Figures/faces/4.png,,,right,1.2842,0,6,6,2,1,
,,,,,,,,,,TW01,,2021-09-23_23h24.25.026,beads_social_exp,2021.2.0,Win32,59.88741167,,,,,,,,,,,,,,,,,,,,,,,Figures/confident_red.png,Figures/faces/5.png,Figures/confident_red.png,Figures/faces/15.png,Figures/confident_red.png,Figures/faces/16.png,Figures/confident_red.png,Figures/faces/6.png,,,right,0.9559,0,7,7,34,1,
,,,,,,,,,,TW01,,2021-09-23_23h24.25.026,beads_social_exp,2021.2.0,Win32,59.88741167,,,,,,,,,,,,,,,,,,,,,,,Figures/confident_green.png,Figures/faces/8.png,Figures/confident_green.png,Figures/faces/18.png,Figures/unconfident_red.png,Figures/faces/19.png,Figures/unconfident_red.png,Figures/faces/9.png,,,left,0.9254,0,8,8,17,1,
,,,,,,,,,,TW01,,2021-09-23_23h24.25.026,beads_social_exp,2021.2.0,Win32,59.88741167,,,,,,,,,,,,,,,,,,,,,,,Figures/confident_green.png,Figures/faces/7.png,Figures/confident_green.png,Figures/faces/17.png,Figures/confident_green.png,Figures/faces/18.png,Figures/confident_green.png,Figures/faces/8.png,,,left,0.8006,0,9,9,6,1,
,,,,,,,,,,TW01,,2021-09-23_23h24.25.026,beads_social_exp,2021.2.0,Win32,59.88741167,,,,,,,,,,,,,,,,,,,,,,,Figures/confident_green.png,Figures/faces/5.png,Figures/confident_green.png,Figures/faces/15.png,Figures/confident_green.png,Figures/faces/16.png,Figures/confident_green.png,Figures/faces/6.png,,,right,1.5289,0,10,10,4,1,
,,,,,,,,,,TW01,,2021-09-23_23h24.25.026,beads_social_exp,2021.2.0,Win32,59.88741167,,,,,,,,,,,,,,,,,,,,,,,Figures/confident_green.png,Figures/faces/7.png,Figures/confident_green.png,Figures/faces/17.png,Figures/unconfident_red.png,Figures/faces/18.png,Figures/unconfident_red.png,Figures/faces/8.png,,,left,1.8371,0,11,11,16,1,
,,,,,,,,,,TW01,,2021-09-23_23h24.25.026,beads_social_exp,2021.2.0,Win32,59.88741167,,,,,,,,,,,,,,,,,,,,,,,Figures/confident_green.png,Figures/faces/2.png,Figures/confident_green.png,Figures/faces/12.png,Figures/confident_green.png,Figures/faces/13.png,Figures/unconfident_red.png,Figures/faces/3.png,,,left,1.8505,0,12,12,11,1,
,,,,,,,,,,TW01,,2021-09-23_23h24.25.026,beads_social_exp,2021.2.0,Win32,59.88741167,,,,,,,,,,,,,,,,,,,,,,,Figures/confident_red.png,Figures/faces/4.png,Figures/confident_red.png,Figures/faces/14.png,Figures/confident_red.png,Figures/faces/15.png,Figures/confident_red.png,Figures/faces/5.png,,,right,0.9145,0,13,13,33,1,
,,,,,,,,,,TW01,,2021-09-23_23h24.25.026,beads_social_exp,2021.2.0,Win32,59.88741167,,,,,,,,,,,,,,,,,,,,,,,Figures/confident_red.png,Figures/faces/2.png,Figures/confident_red.png,Figures/faces/12.png,Figures/confident_red.png,Figures/faces/13.png,Figures/unconfident_green.png,Figures/faces/3.png,,,left,0.7892,0,14,14,21,1,
,,,,,,,,,,TW01,,2021-09-23_23h24.25.026,beads_social_exp,2021.2.0,Win32,59.88741167,,,,,,,,,,,,,,,,,,,,,,,Figures/confident_green.png,Figures/faces/3.png,Figures/confident_green.png,Figures/faces/13.png,Figures/confident_green.png,Figures/faces/14.png,Figures/unconfident_red.png,Figures/faces/4.png,,,right,1.1175,0,15,15,12,1,
,,,,,,,,,,TW01,,2021-09-23_23h24.25.026,beads_social_exp,2021.2.0,Win32,59.88741167,,,,,,,,,,,,,,,,,,,,,,,Figures/confident_green.png,Figures/faces/9.png,Figures/confident_green.png,Figures/faces/19.png,Figures/confident_green.png,Figures/faces/20.png,Figures/unconfident_red.png,Figures/faces/10.png,,,right,1.3687,0,16,16,8,1,
,,,,,,,,,,TW01,,2021-09-23_23h24.25.026,beads_social_exp,2021.2.0,Win32,59.88741167,,,,,,,,,,,,,,,,,,,,,,,Figures/confident_red.png,Figures/faces/10.png,Figures/confident_red.png,Figures/faces/20.png,Figures/confident_red.png,Figures/faces/11.png,Figures/confident_red.png,Figures/faces/1.png,,,left,1.2153,0,17,17,29,1,
,,,,,,,,,,TW01,,2021-09-23_23h24.25.026,beads_social_exp,2021.2.0,Win32,59.88741167,,,,,,,,,,,,,,,,,,,,,,,Figures/confident_red.png,Figures/faces/3.png,Figures/confident_red.png,Figures/faces/13.png,Figures/confident_red.png,Figures/faces/14.png,Figures/unconfident_green.png,Figures/faces/4.png,,,right,1.1587,0,18,18,22,1,
,,,,,,,,,,TW01,,2021-09-23_23h24.25.026,beads_social_exp,2021.2.0,Win32,59.88741167,,,,,,,,,,,,,,,,,,,,,,,Figures/confident_red.png,Figures/faces/7.png,Figures/confident_red.png,Figures/faces/17.png,Figures/confident_red.png,Figures/faces/18.png,Figures/unconfident_green.png,Figures/faces/8.png,,,left,0.5853,0,19,19,26,1,
,,,,,,,,,,TW01,,2021-09-23_23h24.25.026,beads_social_exp,2021.2.0,Win32,59.88741167,,,,,,,,,,,,,,,,,,,,,,,Figures/confident_green.png,Figures/faces/1.png,Figures/confident_green.png,Figures/faces/11.png,Figures/confident_green.png,Figures/faces/12.png,Figures/confident_green.png,Figures/faces/2.png,,,left,2.386,0,20,20,0,1,
,,,,,,,,,,TW01,,2021-09-23_23h24.25.026,beads_social_exp,2021.2.0,Win32,59.88741167,,,,,,,,,,,,,,,,,,,,,,,Figures/confident_red.png,Figures/faces/2.png,Figures/confident_red.png,Figures/faces/12.png,Figures/confident_red.png,Figures/faces/13.png,Figures/confident_red.png,Figures/faces/3.png,,,left,1.535,0,21,21,31,1,
,,,,,,,,,,TW01,,2021-09-23_23h24.25.026,beads_social_exp,2021.2.0,Win32,59.88741167,,,,,,,,,,,,,,,,,,,,,,,Figures/confident_green.png,Figures/faces/5.png,Figures/confident_green.png,Figures/faces/15.png,Figures/unconfident_red.png,Figures/faces/16.png,Figures/unconfident_red.png,Figures/faces/6.png,,,left,0.9505,0,22,22,14,1,
,,,,,,,,,,TW01,,2021-09-23_23h24.25.026,beads_social_exp,2021.2.0,Win32,59.88741167,,,,,,,,,,,,,,,,,,,,,,,Figures/confident_green.png,Figures/faces/10.png,Figures/confident_green.png,Figures/faces/20.png,Figures/unconfident_red.png,Figures/faces/11.png,Figures/unconfident_red.png,Figures/faces/1.png,,,right,1.1674,0,23,23,19,1,
,,,,,,,,,,TW01,,2021-09-23_23h24.25.026,beads_social_exp,2021.2.0,Win32,59.88741167,,,,,,,,,,,,,,,,,,,,,,,Figures/confident_green.png,Figures/faces/4.png,Figures/confident_green.png,Figures/faces/14.png,Figures/confident_green.png,Figures/faces/15.png,Figures/unconfident_red.png,Figures/faces/5.png,,,left,1.4891,0,24,24,13,1,
,,,,,,,,,,TW01,,2021-09-23_23h24.25.026,beads_social_exp,2021.2.0,Win32,59.88741167,,,,,,,,,,,,,,,,,,,,,,,Figures/confident_green.png,Figures/faces/2.png,Figures/confident_green.png,Figures/faces/12.png,Figures/confident_green.png,Figures/faces/13.png,Figures/confident_green.png,Figures/faces/3.png,,,left,0.8771,0,25,25,1,1,
,,,,,,,,,,TW01,,2021-09-23_23h24.25.026,beads_social_exp,2021.2.0,Win32,59.88741167,,,,,,,,,,,,,,,,,,,,,,,Figures/confident_red.png,Figures/faces/5.png,Figures/confident_red.png,Figures/faces/15.png,Figures/confident_red.png,Figures/faces/16.png,Figures/unconfident_green.png,Figures/faces/6.png,,,right,0.6852,0,26,26,24,1,
,,,,,,,,,,TW01,,2021-09-23_23h24.25.026,beads_social_exp,2021.2.0,Win32,59.88741167,,,,,,,,,,,,,,,,,,,,,,,Figures/confident_green.png,Figures/faces/4.png,Figures/confident_green.png,Figures/faces/14.png,Figures/confident_green.png,Figures/faces/15.png,Figures/confident_green.png,Figures/faces/5.png,,,right,0.9671,0,27,27,3,1,
,,,,,,,,,,TW01,,2021-09-23_23h24.25.026,beads_social_exp,2021.2.0,Win32,59.88741167,,,,,,,,,,,,,,,,,,,,,,,Figures/confident_green.png,Figures/faces/6.png,Figures/confident_green.png,Figures/faces/16.png,Figures/confident_green.png,Figures/faces/17.png,Figures/confident_green.png,Figures/faces/7.png,,,right,1.1173,0,28,28,5,1,
,,,,,,,,,,TW01,,2021-09-23_23h24.25.026,beads_social_exp,2021.2.0,Win32,59.88741167,,,,,,,,,,,,,,,,,,,,,,,Figures/confident_red.png,Figures/faces/9.png,Figures/confident_red.png,Figures/faces/19.png,Figures/confident_red.png,Figures/faces/20.png,Figures/confident_red.png,Figures/faces/10.png,,,left,1.3117,0,29,29,28,1,
,,,,,,,,,,TW01,,2021-09-23_23h24.25.026,beads_social_exp,2021.2.0,Win32,59.88741167,,,,,,,,,,,,,,,,,,,,,,,Figures/confident_red.png,Figures/faces/8.png,Figures/confident_red.png,Figures/faces/18.png,Figures/confident_red.png,Figures/faces/19.png,Figures/unconfident_green.png,Figures/faces/9.png,,,right,0.984,0,30,30,27,1,
,,,,,,,,,,TW01,,2021-09-23_23h24.25.026,beads_social_exp,2021.2.0,Win32,59.88741167,,,,,,,,,,,,,,,,,,,,,,,Figures/confident_green.png,Figures/faces/10.png,Figures/confident_green.png,Figures/faces/20.png,Figures/confident_green.png,Figures/faces/11.png,Figures/unconfident_red.png,Figures/faces/1.png,,,left,1.2341,0,31,31,9,1,
,,,,,,,,,,TW01,,2021-09-23_23h24.25.026,beads_social_exp,2021.2.0,Win32,59.88741167,,,,,,,,,,,,,,,,,,,,,,,Figures/confident_red.png,Figures/faces/3.png,Figures/confident_red.png,Figures/faces/13.png,Figures/confident_red.png,Figures/faces/14.png,Figures/confident_red.png,Figures/faces/4.png,,,right,1.4006,0,32,32,32,1,
,,,,,,,,,,TW01,,2021-09-23_23h24.25.026,beads_social_exp,2021.2.0,Win32,59.88741167,,,,,,,,,,,,,,,,,,,,,,,Figures/confident_red.png,Figures/faces/1.png,Figures/confident_red.png,Figures/faces/11.png,Figures/confident_red.png,Figures/faces/12.png,Figures/confident_red.png,Figures/faces/2.png,,,right,1.0433,0,33,33,30,1,
,,,,,,,,,,TW01,,2021-09-23_23h24.25.026,beads_social_exp,2021.2.0,Win32,59.88741167,,,,,,,,,,,,,,,,,,,,,,,Figures/confident_red.png,Figures/faces/4.png,Figures/confident_red.png,Figures/faces/14.png,Figures/confident_red.png,Figures/faces/15.png,Figures/unconfident_green.png,Figures/faces/5.png,,,right,1.3088,0,34,34,23,1,
,,,,,,,,,,TW01,,2021-09-23_23h24.25.026,beads_social_exp,2021.2.0,Win32,59.88741167,,,,,,,,,,,,,,,,,,,,,,,Figures/confident_red.png,Figures/faces/1.png,Figures/confident_red.png,Figures/faces/11.png,Figures/confident_red.png,Figures/faces/12.png,Figures/confident_red.png,Figures/faces/2.png,,,left,0.8509,1,0,35,30,1,
,,,,,,,,,,TW01,,2021-09-23_23h24.25.026,beads_social_exp,2021.2.0,Win32,59.88741167,,,,,,,,,,,,,,,,,,,,,,,Figures/confident_green.png,Figures/faces/8.png,Figures/confident_green.png,Figures/faces/18.png,Figures/unconfident_red.png,Figures/faces/19.png,Figures/unconfident_red.png,Figures/faces/9.png,,,right,0.7674,1,1,36,17,1,
,,,,,,,,,,TW01,,2021-09-23_23h24.25.026,beads_social_exp,2021.2.0,Win32,59.88741167,,,,,,,,,,,,,,,,,,,,,,,Figures/confident_green.png,Figures/faces/4.png,Figures/confident_green.png,Figures/faces/14.png,Figures/confident_green.png,Figures/faces/15.png,Figures/confident_green.png,Figures/faces/5.png,,,right,0.4296,1,2,37,3,1,
,,,,,,,,,,TW01,,2021-09-23_23h24.25.026,beads_social_exp,2021.2.0,Win32,59.88741167,,,,,,,,,,,,,,,,,,,,,,,Figures/confident_red.png,Figures/faces/5.png,Figures/confident_red.png,Figures/faces/15.png,Figures/confident_red.png,Figures/faces/16.png,Figures/unconfident_green.png,Figures/faces/6.png,,,left,1.2293,1,3,38,24,1,
,,,,,,,,,,TW01,,2021-09-23_23h24.25.026,beads_social_exp,2021.2.0,Win32,59.88741167,,,,,,,,,,,,,,,,,,,,,,,Figures/confident_green.png,Figures/faces/1.png,Figures/confident_green.png,Figures/faces/11.png,Figures/unconfident_red.png,Figures/faces/12.png,Figures/unconfident_red.png,Figures/faces/2.png,,,right,0.9632,1,4,39,20,1,
,,,,,,,,,,TW01,,2021-09-23_23h24.25.026,beads_social_exp,2021.2.0,Win32,59.88741167,,,,,,,,,,,,,,,,,,,,,,,Figures/confident_green.png,Figures/faces/7.png,Figures/confident_green.png,Figures/faces/17.png,Figures/confident_green.png,Figures/faces/18.png,Figures/confident_green.png,Figures/faces/8.png,,,left,0.6512,1,5,40,6,1,
,,,,,,,,,,TW01,,2021-09-23_23h24.25.026,beads_social_exp,2021.2.0,Win32,59.88741167,,,,,,,,,,,,,,,,,,,,,,,Figures/confident_red.png,Figures/faces/9.png,Figures/confident_red.png,Figures/faces/19.png,Figures/confident_red.png,Figures/faces/20.png,Figures/confident_red.png,Figures/faces/10.png,,,left,0.8024,1,6,41,28,1,
,,,,,,,,,,TW01,,2021-09-23_23h24.25.026,beads_social_exp,2021.2.0,Win32,59.88741167,,,,,,,,,,,,,,,,,,,,,,,Figures/confident_red.png,Figures/faces/6.png,Figures/confident_red.png,Figures/faces/16.png,Figures/confident_red.png,Figures/faces/17.png,Figures/unconfident_green.png,Figures/faces/7.png,,,right,0.6019,1,7,42,25,1,
,,,,,,,,,,TW01,,2021-09-23_23h24.25.026,beads_social_exp,2021.2.0,Win32,59.88741167,,,,,,,,,,,,,,,,,,,,,,,Figures/confident_red.png,Figures/faces/2.png,Figures/confident_red.png,Figures/faces/12.png,Figures/confident_red.png,Figures/faces/13.png,Figures/unconfident_green.png,Figures/faces/3.png,,,left,1.2178,1,8,43,21,1,
,,,,,,,,,,TW01,,2021-09-23_23h24.25.026,beads_social_exp,2021.2.0,Win32,59.88741167,,,,,,,,,,,,,,,,,,,,,,,Figures/confident_green.png,Figures/faces/8.png,Figures/confident_green.png,Figures/faces/18.png,Figures/confident_green.png,Figures/faces/19.png,Figures/unconfident_red.png,Figures/faces/9.png,,,right,0.6562,1,9,44,7,1,
,,,,,,,,,,TW01,,2021-09-23_23h24.25.026,beads_social_exp,2021.2.0,Win32,59.88741167,,,,,,,,,,,,,,,,,,,,,,,Figures/confident_green.png,Figures/faces/3.png,Figures/confident_green.png,Figures/faces/13.png,Figures/confident_green.png,Figures/faces/14.png,Figures/unconfident_red.png,Figures/faces/4.png,,,right,0.8269,1,10,45,12,1,
,,,,,,,,,,TW01,,2021-09-23_23h24.25.026,beads_social_exp,2021.2.0,Win32,59.88741167,,,,,,,,,,,,,,,,,,,,,,,Figures/confident_red.png,Figures/faces/8.png,Figures/confident_red.png,Figures/faces/18.png,Figures/confident_red.png,Figures/faces/19.png,Figures/unconfident_green.png,Figures/faces/9.png,,,right,1.8846,1,11,46,27,1,
,,,,,,,,,,TW01,,2021-09-23_23h24.25.026,beads_social_exp,2021.2.0,Win32,59.88741167,,,,,,,,,,,,,,,,,,,,,,,Figures/confident_green.png,Figures/faces/1.png,Figures/confident_green.png,Figures/faces/11.png,Figures/confident_green.png,Figures/faces/12.png,Figures/confident_green.png,Figures/faces/2.png,,,left,1.4401,1,12,47,0,1,
,,,,,,,,,,TW01,,2021-09-23_23h24.25.026,beads_social_exp,2021.2.0,Win32,59.88741167,,,,,,,,,,,,,,,,,,,,,,,Figures/confident_green.png,Figures/faces/5.png,Figures/confident_green.png,Figures/faces/15.png,Figures/confident_green.png,Figures/faces/16.png,Figures/confident_green.png,Figures/faces/6.png,,,right,0.7065,1,13,48,4,1,
,,,,,,,,,,TW01,,2021-09-23_23h24.25.026,beads_social_exp,2021.2.0,Win32,59.88741167,,,,,,,,,,,,,,,,,,,,,,,Figures/confident_green.png,Figures/faces/6.png,Figures/confident_green.png,Figures/faces/16.png,Figures/unconfident_red.png,Figures/faces/17.png,Figures/unconfident_red.png,Figures/faces/7.png,,,left,1.939,1,14,49,15,1,
,,,,,,,,,,TW01,,2021-09-23_23h24.25.026,beads_social_exp,2021.2.0,Win32,59.88741167,,,,,,,,,,,,,,,,,,,,,,,Figures/confident_red.png,Figures/faces/3.png,Figures/confident_red.png,Figures/faces/13.png,Figures/confident_red.png,Figures/faces/14.png,Figures/confident_red.png,Figures/faces/4.png,,,right,1.3465,1,15,50,32,1,
,,,,,,,,,,TW01,,2021-09-23_23h24.25.026,beads_social_exp,2021.2.0,Win32,59.88741167,,,,,,,,,,,,,,,,,,,,,,,Figures/confident_green.png,Figures/faces/2.png,Figures/confident_green.png,Figures/faces/12.png,Figures/confident_green.png,Figures/faces/13.png,Figures/unconfident_red.png,Figures/faces/3.png,,,right,0.9954,1,16,51,11,1,
,,,,,,,,,,TW01,,2021-09-23_23h24.25.026,beads_social_exp,2021.2.0,Win32,59.88741167,,,,,,,,,,,,,,,,,,,,,,,Figures/confident_red.png,Figures/faces/2.png,Figures/confident_red.png,Figures/faces/12.png,Figures/confident_red.png,Figures/faces/13.png,Figures/confident_red.png,Figures/faces/3.png,,,left,1.4612,1,17,52,31,1,
,,,,,,,,,,TW01,,2021-09-23_23h24.25.026,beads_social_exp,2021.2.0,Win32,59.88741167,,,,,,,,,,,,,,,,,,,,,,,Figures/confident_red.png,Figures/faces/4.png,Figures/confident_red.png,Figures/faces/14.png,Figures/confident_red.png,Figures/faces/15.png,Figures/confident_red.png,Figures/faces/5.png,,,right,1.2338,1,18,53,33,1,
,,,,,,,,,,TW01,,2021-09-23_23h24.25.026,beads_social_exp,2021.2.0,Win32,59.88741167,,,,,,,,,,,,,,,,,,,,,,,Figures/confident_red.png,Figures/faces/10.png,Figures/confident_red.png,Figures/faces/20.png,Figures/confident_red.png,Figures/faces/11.png,Figures/confident_red.png,Figures/faces/1.png,,,right,1.3205,1,19,54,29,1,
,,,,,,,,,,TW01,,2021-09-23_23h24.25.026,beads_social_exp,2021.2.0,Win32,59.88741167,,,,,,,,,,,,,,,,,,,,,,,Figures/confident_green.png,Figures/faces/7.png,Figures/confident_green.png,Figures/faces/17.png,Figures/unconfident_red.png,Figures/faces/18.png,Figures/unconfident_red.png,Figures/faces/8.png,,,right,1.5169,1,20,55,16,1,
,,,,,,,,,,TW01,,2021-09-23_23h24.25.026,beads_social_exp,2021.2.0,Win32,59.88741167,,,,,,,,,,,,,,,,,,,,,,,Figures/confident_red.png,Figures/faces/4.png,Figures/confident_red.png,Figures/faces/14.png,Figures/confident_red.png,Figures/faces/15.png,Figures/unconfident_green.png,Figures/faces/5.png,,,right,2.9089,1,21,56,23,1,
,,,,,,,,,,TW01,,2021-09-23_23h24.25.026,beads_social_exp,2021.2.0,Win32,59.88741167,,,,,,,,,,,,,,,,,,,,,,,Figures/confident_green.png,Figures/faces/9.png,Figures/confident_green.png,Figures/faces/19.png,Figures/unconfident_red.png,Figures/faces/20.png,Figures/unconfident_red.png,Figures/faces/10.png,,,left,1.8919,1,22,57,18,1,
,,,,,,,,,,TW01,,2021-09-23_23h24.25.026,beads_social_exp,2021.2.0,Win32,59.88741167,,,,,,,,,,,,,,,,,,,,,,,Figures/confident_green.png,Figures/faces/6.png,Figures/confident_green.png,Figures/faces/16.png,Figures/confident_green.png,Figures/faces/17.png,Figures/confident_green.png,Figures/faces/7.png,,,right,2.1505,1,23,58,5,1,
,,,,,,,,,,TW01,,2021-09-23_23h24.25.026,beads_social_exp,2021.2.0,Win32,59.88741167,,,,,,,,,,,,,,,,,,,,,,,Figures/confident_red.png,Figures/faces/5.png,Figures/confident_red.png,Figures/faces/15.png,Figures/confident_red.png,Figures/faces/16.png,Figures/confident_red.png,Figures/faces/6.png,,,left,2.551,1,24,59,34,1,
,,,,,,,,,,TW01,,2021-09-23_23h24.25.026,beads_social_exp,2021.2.0,Win32,59.88741167,,,,,,,,,,,,,,,,,,,,,,,Figures/confident_red.png,Figures/faces/3.png,Figures/confident_red.png,Figures/faces/13.png,Figures/confident_red.png,Figures/faces/14.png,Figures/unconfident_green.png,Figures/faces/4.png,,,left,1.2094,1,25,60,22,1,
,,,,,,,,,,TW01,,2021-09-23_23h24.25.026,beads_social_exp,2021.2.0,Win32,59.88741167,,,,,,,,,,,,,,,,,,,,,,,Figures/confident_green.png,Figures/faces/4.png,Figures/confident_green.png,Figures/faces/14.png,Figures/confident_green.png,Figures/faces/15.png,Figures/unconfident_red.png,Figures/faces/5.png,,,left,2.2762,1,26,61,13,1,
,,,,,,,,,,TW01,,2021-09-23_23h24.25.026,beads_social_exp,2021.2.0,Win32,59.88741167,,,,,,,,,,,,,,,,,,,,,,,Figures/confident_green.png,Figures/faces/2.png,Figures/confident_green.png,Figures/faces/12.png,Figures/confident_green.png,Figures/faces/13.png,Figures/confident_green.png,Figures/faces/3.png,,,left,2.729,1,27,62,1,1,
,,,,,,,,,,TW01,,2021-09-23_23h24.25.026,beads_social_exp,2021.2.0,Win32,59.88741167,,,,,,,,,,,,,,,,,,,,,,,Figures/confident_green.png,Figures/faces/10.png,Figures/confident_green.png,Figures/faces/20.png,Figures/unconfident_red.png,Figures/faces/11.png,Figures/unconfident_red.png,Figures/faces/1.png,,,right,1.507,1,28,63,19,1,
,,,,,,,,,,TW01,,2021-09-23_23h24.25.026,beads_social_exp,2021.2.0,Win32,59.88741167,,,,,,,,,,,,,,,,,,,,,,,Figures/confident_green.png,Figures/faces/1.png,Figures/confident_green.png,Figures/faces/11.png,Figures/confident_green.png,Figures/faces/12.png,Figures/unconfident_red.png,Figures/faces/2.png,,,left,0.6605,1,29,64,10,1,
,,,,,,,,,,TW01,,2021-09-23_23h24.25.026,beads_social_exp,2021.2.0,Win32,59.88741167,,,,,,,,,,,,,,,,,,,,,,,Figures/confident_green.png,Figures/faces/3.png,Figures/confident_green.png,Figures/faces/13.png,Figures/confident_green.png,Figures/faces/14.png,Figures/confident_green.png,Figures/faces/4.png,,,right,1.2791,1,30,65,2,1,
,,,,,,,,,,TW01,,2021-09-23_23h24.25.026,beads_social_exp,2021.2.0,Win32,59.88741167,,,,,,,,,,,,,,,,,,,,,,,Figures/confident_green.png,Figures/faces/5.png,Figures/confident_green.png,Figures/faces/15.png,Figures/unconfident_red.png,Figures/faces/16.png,Figures/unconfident_red.png,Figures/faces/6.png,,,left,0.5706,1,31,66,14,1,
,,,,,,,,,,TW01,,2021-09-23_23h24.25.026,beads_social_exp,2021.2.0,Win32,59.88741167,,,,,,,,,,,,,,,,,,,,,,,Figures/confident_red.png,Figures/faces/7.png,Figures/confident_red.png,Figures/faces/17.png,Figures/confident_red.png,Figures/faces/18.png,Figures/unconfident_green.png,Figures/faces/8.png,,,left,1.1461,1,32,67,26,1,
,,,,,,,,,,TW01,,2021-09-23_23h24.25.026,beads_social_exp,2021.2.0,Win32,59.88741167,,,,,,,,,,,,,,,,,,,,,,,Figures/confident_green.png,Figures/faces/10.png,Figures/confident_green.png,Figures/faces/20.png,Figures/confident_green.png,Figures/faces/11.png,Figures/unconfident_red.png,Figures/faces/1.png,,,right,1.8611,1,33,68,9,1,
,,,,,,,,,,TW01,,2021-09-23_23h24.25.026,beads_social_exp,2021.2.0,Win32,59.88741167,,,,,,,,,,,,,,,,,,,,,,,Figures/confident_green.png,Figures/faces/9.png,Figures/confident_green.png,Figures/faces/19.png,Figures/confident_green.png,Figures/faces/20.png,Figures/unconfident_red.png,Figures/faces/10.png,,,left,1.959,1,34,69,8,1,
,,,,,,,,,,TW01,,2021-09-23_23h24.25.026,beads_social_exp,2021.2.0,Win32,59.88741167,,,,,,,,,,,,,,,,,,,,,,,Figures/confident_green.png,Figures/faces/10.png,Figures/confident_green.png,Figures/faces/20.png,Figures/unconfident_red.png,Figures/faces/11.png,Figures/unconfident_red.png,Figures/faces/1.png,,,left,2.7905,2,0,70,19,1,
,,,,,,,,,,TW01,,2021-09-23_23h24.25.026,beads_social_exp,2021.2.0,Win32,59.88741167,,,,,,,,,,,,,,,,,,,,,,,Figures/confident_green.png,Figures/faces/4.png,Figures/confident_green.png,Figures/faces/14.png,Figures/confident_green.png,Figures/faces/15.png,Figures/unconfident_red.png,Figures/faces/5.png,,,right,1.5951,2,1,71,13,1,
,,,,,,,,,,TW01,,2021-09-23_23h24.25.026,beads_social_exp,2021.2.0,Win32,59.88741167,,,,,,,,,,,,,,,,,,,,,,,Figures/confident_red.png,Figures/faces/5.png,Figures/confident_red.png,Figures/faces/15.png,Figures/confident_red.png,Figures/faces/16.png,Figures/unconfident_green.png,Figures/faces/6.png,,,right,1.6188,2,2,72,24,1,
,,,,,,,,,,TW01,,2021-09-23_23h24.25.026,beads_social_exp,2021.2.0,Win32,59.88741167,,,,,,,,,,,,,,,,,,,,,,,Figures/confident_red.png,Figures/faces/1.png,Figures/confident_red.png,Figures/faces/11.png,Figures/confident_red.png,Figures/faces/12.png,Figures/confident_red.png,Figures/faces/2.png,,,left,0.7781,2,3,73,30,1,
,,,,,,,,,,TW01,,2021-09-23_23h24.25.026,beads_social_exp,2021.2.0,Win32,59.88741167,,,,,,,,,,,,,,,,,,,,,,,Figures/confident_red.png,Figures/faces/4.png,Figures/confident_red.png,Figures/faces/14.png,Figures/confident_red.png,Figures/faces/15.png,Figures/unconfident_green.png,Figures/faces/5.png,,,right,0.3733,2,4,74,23,1,
,,,,,,,,,,TW01,,2021-09-23_23h24.25.026,beads_social_exp,2021.2.0,Win32,59.88741167,,,,,,,,,,,,,,,,,,,,,,,Figures/confident_red.png,Figures/faces/3.png,Figures/confident_red.png,Figures/faces/13.png,Figures/confident_red.png,Figures/faces/14.png,Figures/unconfident_green.png,Figures/faces/4.png,,,right,0.8306,2,5,75,22,1,
,,,,,,,,,,TW01,,2021-09-23_23h24.25.026,beads_social_exp,2021.2.0,Win32,59.88741167,,,,,,,,,,,,,,,,,,,,,,,Figures/confident_green.png,Figures/faces/7.png,Figures/confident_green.png,Figures/faces/17.png,Figures/confident_green.png,Figures/faces/18.png,Figures/confident_green.png,Figures/faces/8.png,,,left,1.9789,2,6,76,6,1,
,,,,,,,,,,TW01,,2021-09-23_23h24.25.026,beads_social_exp,2021.2.0,Win32,59.88741167,,,,,,,,,,,,,,,,,,,,,,,Figures/confident_red.png,Figures/faces/7.png,Figures/confident_red.png,Figures/faces/17.png,Figures/confident_red.png,Figures/faces/18.png,Figures/unconfident_green.png,Figures/faces/8.png,,,left,0.9056,2,7,77,26,1,
,,,,,,,,,,TW01,,2021-09-23_23h24.25.026,beads_social_exp,2021.2.0,Win32,59.88741167,,,,,,,,,,,,,,,,,,,,,,,Figures/confident_green.png,Figures/faces/8.png,Figures/confident_green.png,Figures/faces/18.png,Figures/unconfident_red.png,Figures/faces/19.png,Figures/unconfident_red.png,Figures/faces/9.png,,,right,1.3172,2,8,78,17,1,
,,,,,,,,,,TW01,,2021-09-23_23h24.25.026,beads_social_exp,2021.2.0,Win32,59.88741167,,,,,,,,,,,,,,,,,,,,,,,Figures/confident_green.png,Figures/faces/9.png,Figures/confident_green.png,Figures/faces/19.png,Figures/unconfident_red.png,Figures/faces/20.png,Figures/unconfident_red.png,Figures/faces/10.png,,,left,2.0283,2,9,79,18,1,
,,,,,,,,,,TW01,,2021-09-23_23h24.25.026,beads_social_exp,2021.2.0,Win32,59.88741167,,,,,,,,,,,,,,,,,,,,,,,Figures/confident_green.png,Figures/faces/3.png,Figures/confident_green.png,Figures/faces/13.png,Figures/confident_green.png,Figures/faces/14.png,Figures/unconfident_red.png,Figures/faces/4.png,,,left,2.2044,2,10,80,12,1,
,,,,,,,,,,TW01,,2021-09-23_23h24.25.026,beads_social_exp,2021.2.0,Win32,59.88741167,,,,,,,,,,,,,,,,,,,,,,,Figures/confident_red.png,Figures/faces/6.png,Figures/confident_red.png,Figures/faces/16.png,Figures/confident_red.png,Figures/faces/17.png,Figures/unconfident_green.png,Figures/faces/7.png,,,right,1.9245,2,11,81,25,1,
,,,,,,,,,,TW01,,2021-09-23_23h24.25.026,beads_social_exp,2021.2.0,Win32,59.88741167,,,,,,,,,,,,,,,,,,,,,,,Figures/confident_green.png,Figures/faces/5.png,Figures/confident_green.png,Figures/faces/15.png,Figures/unconfident_red.png,Figures/faces/16.png,Figures/unconfident_red.png,Figures/faces/6.png,,,right,1.8202,2,12,82,14,1,
,,,,,,,,,,TW01,,2021-09-23_23h24.25.026,beads_social_exp,2021.2.0,Win32,59.88741167,,,,,,,,,,,,,,,,,,,,,,,Figures/confident_green.png,Figures/faces/2.png,Figures/confident_green.png,Figures/faces/12.png,Figures/confident_green.png,Figures/faces/13.png,Figures/unconfident_red.png,Figures/faces/3.png,,,left,1.8076,2,13,83,11,1,
,,,,,,,,,,TW01,,2021-09-23_23h24.25.026,beads_social_exp,2021.2.0,Win32,59.88741167,,,,,,,,,,,,,,,,,,,,,,,Figures/confident_green.png,Figures/faces/1.png,Figures/confident_green.png,Figures/faces/11.png,Figures/confident_green.png,Figures/faces/12.png,Figures/unconfident_red.png,Figures/faces/2.png,,,left,1.5203,2,14,84,10,1,
,,,,,,,,,,TW01,,2021-09-23_23h24.25.026,beads_social_exp,2021.2.0,Win32,59.88741167,,,,,,,,,,,,,,,,,,,,,,,Figures/confident_red.png,Figures/faces/10.png,Figures/confident_red.png,Figures/faces/20.png,Figures/confident_red.png,Figures/faces/11.png,Figures/confident_red.png,Figures/faces/1.png,,,right,1.5596,2,15,85,29,1,
,,,,,,,,,,TW01,,2021-09-23_23h24.25.026,beads_social_exp,2021.2.0,Win32,59.88741167,,,,,,,,,,,,,,,,,,,,,,,Figures/confident_red.png,Figures/faces/2.png,Figures/confident_red.png,Figures/faces/12.png,Figures/confident_red.png,Figures/faces/13.png,Figures/confident_red.png,Figures/faces/3.png,,,left,1.8545,2,16,86,31,1,
,,,,,,,,,,TW01,,2021-09-23_23h24.25.026,beads_social_exp,2021.2.0,Win32,59.88741167,,,,,,,,,,,,,,,,,,,,,,,Figures/confident_red.png,Figures/faces/8.png,Figures/confident_red.png,Figures/faces/18.png,Figures/confident_red.png,Figures/faces/19.png,Figures/unconfident_green.png,Figures/faces/9.png,,,right,1.4428,2,17,87,27,1,
,,,,,,,,,,TW01,,2021-09-23_23h24.25.026,beads_social_exp,2021.2.0,Win32,59.88741167,,,,,,,,,,,,,,,,,,,,,,,Figures/confident_green.png,Figures/faces/1.png,Figures/confident_green.png,Figures/faces/11.png,Figures/unconfident_red.png,Figures/faces/12.png,Figures/unconfident_red.png,Figures/faces/2.png,,,left,1.8038,2,18,88,20,1,
,,,,,,,,,,TW01,,2021-09-23_23h24.25.026,beads_social_exp,2021.2.0,Win32,59.88741167,,,,,,,,,,,,,,,,,,,,,,,Figures/confident_green.png,Figures/faces/3.png,Figures/confident_green.png,Figures/faces/13.png,Figures/confident_green.png,Figures/faces/14.png,Figures/confident_green.png,Figures/faces/4.png,,,left,1.4957,2,19,89,2,1,
,,,,,,,,,,TW01,,2021-09-23_23h24.25.026,beads_social_exp,2021.2.0,Win32,59.88741167,,,,,,,,,,,,,,,,,,,,,,,Figures/confident_green.png,Figures/faces/7.png,Figures/confident_green.png,Figures/faces/17.png,Figures/unconfident_red.png,Figures/faces/18.png,Figures/unconfident_red.png,Figures/faces/8.png,,,right,1.771,2,20,90,16,1,
,,,,,,,,,,TW01,,2021-09-23_23h24.25.026,beads_social_exp,2021.2.0,Win32,59.88741167,,,,,,,,,,,,,,,,,,,,,,,Figures/confident_green.png,Figures/faces/2.png,Figures/confident_green.png,Figures/faces/12.png,Figures/confident_green.png,Figures/faces/13.png,Figures/confident_green.png,Figures/faces/3.png,,,right,2.4672,2,21,91,1,1,
,,,,,,,,,,TW01,,2021-09-23_23h24.25.026,beads_social_exp,2021.2.0,Win32,59.88741167,,,,,,,,,,,,,,,,,,,,,,,Figures/confident_green.png,Figures/faces/6.png,Figures/confident_green.png,Figures/faces/16.png,Figures/confident_green.png,Figures/faces/17.png,Figures/confident_green.png,Figures/faces/7.png,,,left,0.7624,2,22,92,5,1,
,,,,,,,,,,TW01,,2021-09-23_23h24.25.026,beads_social_exp,2021.2.0,Win32,59.88741167,,,,,,,,,,,,,,,,,,,,,,,Figures/confident_red.png,Figures/faces/3.png,Figures/confident_red.png,Figures/faces/13.png,Figures/confident_red.png,Figures/faces/14.png,Figures/confident_red.png,Figures/faces/4.png,,,right,0.9255,2,23,93,32,1,
,,,,,,,,,,TW01,,2021-09-23_23h24.25.026,beads_social_exp,2021.2.0,Win32,59.88741167,,,,,,,,,,,,,,,,,,,,,,,Figures/confident_red.png,Figures/faces/5.png,Figures/confident_red.png,Figures/faces/15.png,Figures/confident_red.png,Figures/faces/16.png,Figures/confident_red.png,Figures/faces/6.png,,,right,1.3434,2,24,94,34,1,
,,,,,,,,,,TW01,,2021-09-23_23h24.25.026,beads_social_exp,2021.2.0,Win32,59.88741167,,,,,,,,,,,,,,,,,,,,,,,Figures/confident_green.png,Figures/faces/9.png,Figures/confident_green.png,Figures/faces/19.png,Figures/confident_green.png,Figures/faces/20.png,Figures/unconfident_red.png,Figures/faces/10.png,,,left,0.6843,2,25,95,8,1,
,,,,,,,,,,TW01,,2021-09-23_23h24.25.026,beads_social_exp,2021.2.0,Win32,59.88741167,,,,,,,,,,,,,,,,,,,,,,,Figures/confident_green.png,Figures/faces/1.png,Figures/confident_green.png,Figures/faces/11.png,Figures/confident_green.png,Figures/faces/12.png,Figures/confident_green.png,Figures/faces/2.png,,,left,1.7671,2,26,96,0,1,
,,,,,,,,,,TW01,,2021-09-23_23h24.25.026,beads_social_exp,2021.2.0,Win32,59.88741167,,,,,,,,,,,,,,,,,,,,,,,Figures/confident_green.png,Figures/faces/8.png,Figures/confident_green.png,Figures/faces/18.png,Figures/confident_green.png,Figures/faces/19.png,Figures/unconfident_red.png,Figures/faces/9.png,,,right,1.4232,2,27,97,7,1,
,,,,,,,,,,TW01,,2021-09-23_23h24.25.026,beads_social_exp,2021.2.0,Win32,59.88741167,,,,,,,,,,,,,,,,,,,,,,,Figures/confident_red.png,Figures/faces/2.png,Figures/confident_red.png,Figures/faces/12.png,Figures/confident_red.png,Figures/faces/13.png,Figures/unconfident_green.png,Figures/faces/3.png,,,left,1.9219,2,28,98,21,1,
,,,,,,,,,,TW01,,2021-09-23_23h24.25.026,beads_social_exp,2021.2.0,Win32,59.88741167,,,,,,,,,,,,,,,,,,,,,,,Figures/confident_red.png,Figures/faces/4.png,Figures/confident_red.png,Figures/faces/14.png,Figures/confident_red.png,Figures/faces/15.png,Figures/confident_red.png,Figures/faces/5.png,,,right,0.9406,2,29,99,33,1,
,,,,,,,,,,TW01,,2021-09-23_23h24.25.026,beads_social_exp,2021.2.0,Win32,59.88741167,,,,,,,,,,,,,,,,,,,,,,,Figures/confident_red.png,Figures/faces/9.png,Figures/confident_red.png,Figures/faces/19.png,Figures/confident_red.png,Figures/faces/20.png,Figures/confident_red.png,Figures/faces/10.png,,,left,0.8842,2,30,100,28,1,
,,,,,,,,,,TW01,,2021-09-23_23h24.25.026,beads_social_exp,2021.2.0,Win32,59.88741167,,,,,,,,,,,,,,,,,,,,,,,Figures/confident_green.png,Figures/faces/6.png,Figures/confident_green.png,Figures/faces/16.png,Figures/unconfident_red.png,Figures/faces/17.png,Figures/unconfident_red.png,Figures/faces/7.png,,,left,1.3337,2,31,101,15,1,
,,,,,,,,,,TW01,,2021-09-23_23h24.25.026,beads_social_exp,2021.2.0,Win32,59.88741167,,,,,,,,,,,,,,,,,,,,,,,Figures/confident_green.png,Figures/faces/5.png,Figures/confident_green.png,Figures/faces/15.png,Figures/confident_green.png,Figures/faces/16.png,Figures/confident_green.png,Figures/faces/6.png,,,right,2.3474,2,32,102,4,1,
,,,,,,,,,,TW01,,2021-09-23_23h24.25.026,beads_social_exp,2021.2.0,Win32,59.88741167,,,,,,,,,,,,,,,,,,,,,,,Figures/confident_green.png,Figures/faces/4.png,Figures/confident_green.png,Figures/faces/14.png,Figures/confident_green.png,Figures/faces/15.png,Figures/confident_green.png,Figures/faces/5.png,,,right,2.4039,2,33,103,3,1,
,,,,,,,,,,TW01,,2021-09-23_23h24.25.026,beads_social_exp,2021.2.0,Win32,59.88741167,,,,,,,,,,,,,,,,,,,,,,,Figures/confident_green.png,Figures/faces/10.png,Figures/confident_green.png,Figures/faces/20.png,Figures/confident_green.png,Figures/faces/11.png,Figures/unconfident_red.png,Figures/faces/1.png,,,right,2.437,2,34,104,9,1,
,,,,,,,,,,TW01,,2021-09-23_23h24.25.026,beads_social_exp,2021.2.0,Win32,59.88741167,,,,,,,,,,,,,,,,,,,,,,,,,,,,,,,,,,,,,,,,
