intro_loop.thisRepN,intro_loop.thisTrialN,intro_loop.thisN,intro_loop.thisIndex,intro_loop.ran,Figure,Figure2,Figure3,Figure4,Text,participant,session,date,expName,psychopyVersion,OS,frameRate,key_resp.keys,key_resp.rt,confidence_response.keys,confidence_response.rt,practice_trials.thisRepN,practice_trials.thisTrialN,practice_trials.thisN,practice_trials.thisIndex,practice_trials.ran,beads_image,intro_agents.thisRepN,intro_agents.thisTrialN,intro_agents.thisN,intro_agents.thisIndex,intro_agents.ran,key_resp1.keys,key_resp1.rt,trials.thisRepN,trials.thisTrialN,trials.thisN,trials.thisIndex,trials.ran,agent1,agent1_face,agent2,agent2_face,agent3,agent3_face,agent4,agent4_face,key_resp_4.keys,key_resp_4.rt,participant_decision.keys,participant_decision.rt,trials_real.thisRepN,trials_real.thisTrialN,trials_real.thisN,trials_real.thisIndex,trials_real.ran,key_resp_2.keys
0,0,0,0,1,Figures/blank_image.png,Figures/blank_image.png,Figures/blank_image.png,Figures/blank_image.png,"The experiment you will perform is a variation on a task known as the ""beads task"".",SW26,,2021-09-25_08h16.23.254,beads_social_exp,2021.2.0,MacIntel,59.99880002,,,,,,,,,,,,,,,,,,,,,,,,,,,,,,,,,,,,,,,,
0,1,1,1,1,Figures/all_jars.png,Figures/blank_image.png,Figures/blank_image.png,Figures/blank_image.png,"In this variant of the experiment, there are 9 jars containing various proportions of red and green beads.",SW26,,2021-09-25_08h16.23.254,beads_social_exp,2021.2.0,MacIntel,59.99880002,,,,,,,,,,,,,,,,,,,,,,,,,,,,,,,,,,,,,,,,
0,2,2,2,1,Figures/jar_covered.png,Figures/blank_image.png,Figures/blank_image.png,Figures/blank_image.png,"One jar is chosen at random and covered, hiding the beads.",SW26,,2021-09-25_08h16.23.254,beads_social_exp,2021.2.0,MacIntel,59.99880002,,,,,,,,,,,,,,,,,,,,,,,,,,,,,,,,,,,,,,,,
0,3,3,3,1,Figures/jar_covered.png,Figures/sample_1_red.png,Figures/blank_image.png,Figures/hand_front.png,8 beads are randomly drawn from this jar.,SW26,,2021-09-25_08h16.23.254,beads_social_exp,2021.2.0,MacIntel,59.99880002,,,,,,,,,,,,,,,,,,,,,,,,,,,,,,,,,,,,,,,,
0,4,4,4,1,Figures/jar_covered.png,Figures/sample_1_red.png,Figures/random_bead.png,Figures/hand_front.png,A new bead will then be drawn from the jar.,SW26,,2021-09-25_08h16.23.254,beads_social_exp,2021.2.0,MacIntel,59.99880002,,,,,,,,,,,,,,,,,,,,,,,,,,,,,,,,,,,,,,,,
0,5,5,5,1,Figures/jar_covered.png,Figures/sample_1_red.png,Figures/random_bead.png,Figures/hand_front.png,Your task is to guess what colour (red or green) this next bead will be.,SW26,,2021-09-25_08h16.23.254,beads_social_exp,2021.2.0,MacIntel,59.99880002,,,,,,,,,,,,,,,,,,,,,,,,,,,,,,,,,,,,,,,,
0,6,6,6,1,Figures/blank_image.png,Figures/blank_image.png,Figures/blank_image.png,Figures/blank_image.png,You will perform this experiment with four other (simulated) participants.,SW26,,2021-09-25_08h16.23.254,beads_social_exp,2021.2.0,MacIntel,59.99880002,,,,,,,,,,,,,,,,,,,,,,,,,,,,,,,,,,,,,,,,
0,7,7,7,1,Figures/blank_image.png,Figures/blank_image.png,Figures/blank_image.png,Figures/blank_image.png,"You will be able to see their guess (but not their beads), as well as see how confident they are in their guess.",SW26,,2021-09-25_08h16.23.254,beads_social_exp,2021.2.0,MacIntel,59.99880002,,,,,,,,,,,,,,,,,,,,,,,,,,,,,,,,,,,,,,,,
0,8,8,8,1,Figures/blank_image.png,Figures/blank_image.png,Figures/blank_image.png,Figures/blank_image.png,"Unlike the original ""beads task"", you therefore have access to additional social information.",SW26,,2021-09-25_08h16.23.254,beads_social_exp,2021.2.0,MacIntel,59.99880002,,,,,,,,,,,,,,,,,,,,,,,,,,,,,,,,,,,,,,,,
0,9,9,9,1,Figures/blank_image.png,Figures/blank_image.png,Figures/blank_image.png,Figures/blank_image.png,We will perform 5 practice trials without the other participants to help you understand how the task works.,SW26,,2021-09-25_08h16.23.254,beads_social_exp,2021.2.0,MacIntel,59.99880002,,,,,,,,,,,,,,,,,,,,,,,,,,,,,,,,,,,,,,,,
,,,,,,,,,,SW26,,2021-09-25_08h16.23.254,beads_social_exp,2021.2.0,MacIntel,59.99880002,left,3.6047,right,4.0157,0,0,0,0,1,Figures/sample_2_red.png,,,,,,,,,,,,,,,,,,,,,,,,,,,,,,
,,,,,,,,,,SW26,,2021-09-25_08h16.23.254,beads_social_exp,2021.2.0,MacIntel,59.99880002,right,5.9697,right,0.9799,0,1,1,2,1,Figures/sample_4_red.png,,,,,,,,,,,,,,,,,,,,,,,,,,,,,,
,,,,,,,,,,SW26,,2021-09-25_08h16.23.254,beads_social_exp,2021.2.0,MacIntel,59.99880002,left,2.6991,right,0.8635,0,2,2,1,1,Figures/sample_3_red.png,,,,,,,,,,,,,,,,,,,,,,,,,,,,,,
,,,,,,,,,,SW26,,2021-09-25_08h16.23.254,beads_social_exp,2021.2.0,MacIntel,59.99880002,left,0.6487,right,0.7832,0,3,3,4,1,Figures/sample_6_red.png,,,,,,,,,,,,,,,,,,,,,,,,,,,,,,
,,,,,,,,,,SW26,,2021-09-25_08h16.23.254,beads_social_exp,2021.2.0,MacIntel,59.99880002,right,7.0714,right,1.011,0,4,4,3,1,Figures/sample_5_red.png,,,,,,,,,,,,,,,,,,,,,,,,,,,,,,
,,,,,Figures/blank_image.png,,,,"You will now perform the same experiment, but you will do so alongside four other (simulated) agents.",SW26,,2021-09-25_08h16.23.254,beads_social_exp,2021.2.0,MacIntel,59.99880002,,,,,,,,,,,0,0,0,0,1,,,,,,,,,,,,,,,,,,,,,,,,,
,,,,,Figures/blank_image.png,,,,"As before, each agent will draw 8 random beads, guess the colour of the next bead and state their confidence, then replace all the beads back into the jar.",SW26,,2021-09-25_08h16.23.254,beads_social_exp,2021.2.0,MacIntel,59.99880002,,,,,,,,,,,0,1,1,1,1,,,,,,,,,,,,,,,,,,,,,,,,,
,,,,,Figures/blank_image.png,,,,"All the agents, along with yourself, will be drawing beads from the same jar.",SW26,,2021-09-25_08h16.23.254,beads_social_exp,2021.2.0,MacIntel,59.99880002,,,,,,,,,,,0,2,2,2,1,,,,,,,,,,,,,,,,,,,,,,,,,
,,,,,Figures/blank_image.png,,,,Though do note that you will all replace the beads back into the jar before the next participant/agent has their turn.,SW26,,2021-09-25_08h16.23.254,beads_social_exp,2021.2.0,MacIntel,59.99880002,,,,,,,,,,,0,3,3,3,1,,,,,,,,,,,,,,,,,,,,,,,,,
,,,,,Figures/possible_agent_responses.png,,,,Their choice of colour and confidence will be shown using the above four images.,SW26,,2021-09-25_08h16.23.254,beads_social_exp,2021.2.0,MacIntel,59.99880002,,,,,,,,,,,0,4,4,4,1,,,,,,,,,,,,,,,,,,,,,,,,,
,,,,,Figures/possible_agent_responses.png,,,,You can therefore use the agents decisions to inform your own decision about the colour of the next bead.,SW26,,2021-09-25_08h16.23.254,beads_social_exp,2021.2.0,MacIntel,59.99880002,,,,,,,,,,,0,5,5,5,1,,,,,,,,,,,,,,,,,,,,,,,,,
,,,,,Figures/possible_agent_responses.png,,,,You will not need to state your confidence in this part of the experiment. You only need to guess the colour of the next bead.,SW26,,2021-09-25_08h16.23.254,beads_social_exp,2021.2.0,MacIntel,59.99880002,,,,,,,,,,,0,6,6,6,1,,,,,,,,,,,,,,,,,,,,,,,,,
,,,,,Figures/possible_agent_responses.png,,,,We will begin 10 practice trials.,SW26,,2021-09-25_08h16.23.254,beads_social_exp,2021.2.0,MacIntel,59.99880002,,,,,,,,,,,0,7,7,7,1,,,,,,,,,,,,,,,,,,,,,,,,,
,,,,,,,,,,SW26,,2021-09-25_08h16.23.254,beads_social_exp,2021.2.0,MacIntel,59.99880002,,,,,,,,,,,,,,,,right,4.4597,0,0,0,3,1,Figures/confident_green.png,Figures/faces/1.png,Figures/confident_green.png,Figures/faces/11.png,Figures/confident_green.png,Figures/faces/12.png,Figures/unconfident_red.png,Figures/faces/2.png,,,,,,,,,,
,,,,,,,,,,SW26,,2021-09-25_08h16.23.254,beads_social_exp,2021.2.0,MacIntel,59.99880002,,,,,,,,,,,,,,,,left,2.063,0,1,1,7,1,Figures/confident_green.png,Figures/faces/10.png,Figures/confident_green.png,Figures/faces/20.png,Figures/unconfident_red.png,Figures/faces/11.png,Figures/unconfident_red.png,Figures/faces/1.png,,,,,,,,,,
,,,,,,,,,,SW26,,2021-09-25_08h16.23.254,beads_social_exp,2021.2.0,MacIntel,59.99880002,,,,,,,,,,,,,,,,right,1.0019,0,2,2,1,1,Figures/confident_green.png,Figures/faces/5.png,Figures/confident_green.png,Figures/faces/15.png,Figures/confident_green.png,Figures/faces/16.png,Figures/confident_green.png,Figures/faces/6.png,,,,,,,,,,
,,,,,,,,,,SW26,,2021-09-25_08h16.23.254,beads_social_exp,2021.2.0,MacIntel,59.99880002,,,,,,,,,,,,,,,,right,0.981,0,3,3,6,1,Figures/confident_green.png,Figures/faces/9.png,Figures/confident_green.png,Figures/faces/19.png,Figures/unconfident_red.png,Figures/faces/20.png,Figures/unconfident_red.png,Figures/faces/10.png,,,,,,,,,,
,,,,,,,,,,SW26,,2021-09-25_08h16.23.254,beads_social_exp,2021.2.0,MacIntel,59.99880002,,,,,,,,,,,,,,,,left,2.3839,0,4,4,4,1,Figures/confident_green.png,Figures/faces/7.png,Figures/confident_green.png,Figures/faces/17.png,Figures/unconfident_red.png,Figures/faces/18.png,Figures/unconfident_red.png,Figures/faces/8.png,,,,,,,,,,
,,,,,,,,,,SW26,,2021-09-25_08h16.23.254,beads_social_exp,2021.2.0,MacIntel,59.99880002,,,,,,,,,,,,,,,,right,1.1655,0,5,5,0,1,Figures/confident_green.png,Figures/faces/1.png,Figures/confident_green.png,Figures/faces/11.png,Figures/confident_green.png,Figures/faces/12.png,Figures/confident_green.png,Figures/faces/2.png,,,,,,,,,,
,,,,,,,,,,SW26,,2021-09-25_08h16.23.254,beads_social_exp,2021.2.0,MacIntel,59.99880002,,,,,,,,,,,,,,,,left,0.7313,0,6,6,5,1,Figures/confident_green.png,Figures/faces/8.png,Figures/confident_green.png,Figures/faces/18.png,Figures/unconfident_red.png,Figures/faces/19.png,Figures/unconfident_red.png,Figures/faces/9.png,,,,,,,,,,
,,,,,,,,,,SW26,,2021-09-25_08h16.23.254,beads_social_exp,2021.2.0,MacIntel,59.99880002,,,,,,,,,,,,,,,,left,8.7315,0,7,7,8,1,Figures/confident_red.png,Figures/faces/6.png,Figures/confident_red.png,Figures/faces/16.png,Figures/confident_red.png,Figures/faces/17.png,Figures/unconfident_green.png,Figures/faces/7.png,,,,,,,,,,
,,,,,,,,,,SW26,,2021-09-25_08h16.23.254,beads_social_exp,2021.2.0,MacIntel,59.99880002,,,,,,,,,,,,,,,,right,3.8553,0,8,8,2,1,Figures/confident_green.png,Figures/faces/9.png,Figures/confident_green.png,Figures/faces/19.png,Figures/confident_green.png,Figures/faces/20.png,Figures/unconfident_red.png,Figures/faces/10.png,,,,,,,,,,
,,,,,,,,,,SW26,,2021-09-25_08h16.23.254,beads_social_exp,2021.2.0,MacIntel,59.99880002,,,,,,,,,,,,,,,,left,0.7285,0,9,9,9,1,Figures/confident_red.png,Figures/faces/5.png,Figures/confident_red.png,Figures/faces/15.png,Figures/confident_red.png,Figures/faces/16.png,Figures/confident_red.png,Figures/faces/6.png,,,,,,,,,,
,,,,,,,,,,SW26,,2021-09-25_08h16.23.254,beads_social_exp,2021.2.0,MacIntel,59.99880002,,,,,,,,,,,,,,,,,,,,,,,Figures/confident_green.png,Figures/faces/8.png,Figures/confident_green.png,Figures/faces/18.png,Figures/confident_green.png,Figures/faces/19.png,Figures/unconfident_red.png,Figures/faces/9.png,space,6.2331,right,0.6831,0,0,0,7,1,
,,,,,,,,,,SW26,,2021-09-25_08h16.23.254,beads_social_exp,2021.2.0,MacIntel,59.99880002,,,,,,,,,,,,,,,,,,,,,,,Figures/confident_green.png,Figures/faces/10.png,Figures/confident_green.png,Figures/faces/20.png,Figures/confident_green.png,Figures/faces/11.png,Figures/unconfident_red.png,Figures/faces/1.png,,,right,0.5666,0,1,1,9,1,
,,,,,,,,,,SW26,,2021-09-25_08h16.23.254,beads_social_exp,2021.2.0,MacIntel,59.99880002,,,,,,,,,,,,,,,,,,,,,,,Figures/confident_red.png,Figures/faces/5.png,Figures/confident_red.png,Figures/faces/15.png,Figures/confident_red.png,Figures/faces/16.png,Figures/unconfident_green.png,Figures/faces/6.png,,,right,3.6463,0,2,2,24,1,
,,,,,,,,,,SW26,,2021-09-25_08h16.23.254,beads_social_exp,2021.2.0,MacIntel,59.99880002,,,,,,,,,,,,,,,,,,,,,,,Figures/confident_green.png,Figures/faces/7.png,Figures/confident_green.png,Figures/faces/17.png,Figures/unconfident_red.png,Figures/faces/18.png,Figures/unconfident_red.png,Figures/faces/8.png,,,right,4.5815,0,3,3,16,1,
,,,,,,,,,,SW26,,2021-09-25_08h16.23.254,beads_social_exp,2021.2.0,MacIntel,59.99880002,,,,,,,,,,,,,,,,,,,,,,,Figures/confident_red.png,Figures/faces/3.png,Figures/confident_red.png,Figures/faces/13.png,Figures/confident_red.png,Figures/faces/14.png,Figures/unconfident_green.png,Figures/faces/4.png,,,right,4.381,0,4,4,22,1,
,,,,,,,,,,SW26,,2021-09-25_08h16.23.254,beads_social_exp,2021.2.0,MacIntel,59.99880002,,,,,,,,,,,,,,,,,,,,,,,Figures/confident_green.png,Figures/faces/7.png,Figures/confident_green.png,Figures/faces/17.png,Figures/confident_green.png,Figures/faces/18.png,Figures/confident_green.png,Figures/faces/8.png,,,right,2.469,0,5,5,6,1,
,,,,,,,,,,SW26,,2021-09-25_08h16.23.254,beads_social_exp,2021.2.0,MacIntel,59.99880002,,,,,,,,,,,,,,,,,,,,,,,Figures/confident_red.png,Figures/faces/7.png,Figures/confident_red.png,Figures/faces/17.png,Figures/confident_red.png,Figures/faces/18.png,Figures/unconfident_green.png,Figures/faces/8.png,,,right,0.8812,0,6,6,26,1,
,,,,,,,,,,SW26,,2021-09-25_08h16.23.254,beads_social_exp,2021.2.0,MacIntel,59.99880002,,,,,,,,,,,,,,,,,,,,,,,Figures/confident_green.png,Figures/faces/1.png,Figures/confident_green.png,Figures/faces/11.png,Figures/confident_green.png,Figures/faces/12.png,Figures/confident_green.png,Figures/faces/2.png,,,left,2.9384,0,7,7,0,1,
,,,,,,,,,,SW26,,2021-09-25_08h16.23.254,beads_social_exp,2021.2.0,MacIntel,59.99880002,,,,,,,,,,,,,,,,,,,,,,,Figures/confident_red.png,Figures/faces/5.png,Figures/confident_red.png,Figures/faces/15.png,Figures/confident_red.png,Figures/faces/16.png,Figures/confident_red.png,Figures/faces/6.png,,,left,7.1327,0,8,8,34,1,
,,,,,,,,,,SW26,,2021-09-25_08h16.23.254,beads_social_exp,2021.2.0,MacIntel,59.99880002,,,,,,,,,,,,,,,,,,,,,,,Figures/confident_green.png,Figures/faces/6.png,Figures/confident_green.png,Figures/faces/16.png,Figures/unconfident_red.png,Figures/faces/17.png,Figures/unconfident_red.png,Figures/faces/7.png,,,left,5.1376,0,9,9,15,1,
,,,,,,,,,,SW26,,2021-09-25_08h16.23.254,beads_social_exp,2021.2.0,MacIntel,59.99880002,,,,,,,,,,,,,,,,,,,,,,,Figures/confident_red.png,Figures/faces/4.png,Figures/confident_red.png,Figures/faces/14.png,Figures/confident_red.png,Figures/faces/15.png,Figures/unconfident_green.png,Figures/faces/5.png,,,right,4.7351,0,10,10,23,1,
,,,,,,,,,,SW26,,2021-09-25_08h16.23.254,beads_social_exp,2021.2.0,MacIntel,59.99880002,,,,,,,,,,,,,,,,,,,,,,,Figures/confident_green.png,Figures/faces/9.png,Figures/confident_green.png,Figures/faces/19.png,Figures/confident_green.png,Figures/faces/20.png,Figures/unconfident_red.png,Figures/faces/10.png,,,right,2.4478,0,11,11,8,1,
,,,,,,,,,,SW26,,2021-09-25_08h16.23.254,beads_social_exp,2021.2.0,MacIntel,59.99880002,,,,,,,,,,,,,,,,,,,,,,,Figures/confident_green.png,Figures/faces/1.png,Figures/confident_green.png,Figures/faces/11.png,Figures/confident_green.png,Figures/faces/12.png,Figures/unconfident_red.png,Figures/faces/2.png,,,left,8.4036,0,12,12,10,1,
,,,,,,,,,,SW26,,2021-09-25_08h16.23.254,beads_social_exp,2021.2.0,MacIntel,59.99880002,,,,,,,,,,,,,,,,,,,,,,,Figures/confident_red.png,Figures/faces/2.png,Figures/confident_red.png,Figures/faces/12.png,Figures/confident_red.png,Figures/faces/13.png,Figures/confident_red.png,Figures/faces/3.png,,,left,2.1807,0,13,13,31,1,
,,,,,,,,,,SW26,,2021-09-25_08h16.23.254,beads_social_exp,2021.2.0,MacIntel,59.99880002,,,,,,,,,,,,,,,,,,,,,,,Figures/confident_red.png,Figures/faces/3.png,Figures/confident_red.png,Figures/faces/13.png,Figures/confident_red.png,Figures/faces/14.png,Figures/confident_red.png,Figures/faces/4.png,,,right,3.8459,0,14,14,32,1,
,,,,,,,,,,SW26,,2021-09-25_08h16.23.254,beads_social_exp,2021.2.0,MacIntel,59.99880002,,,,,,,,,,,,,,,,,,,,,,,Figures/confident_green.png,Figures/faces/6.png,Figures/confident_green.png,Figures/faces/16.png,Figures/confident_green.png,Figures/faces/17.png,Figures/confident_green.png,Figures/faces/7.png,,,right,1.4486,0,15,15,5,1,
,,,,,,,,,,SW26,,2021-09-25_08h16.23.254,beads_social_exp,2021.2.0,MacIntel,59.99880002,,,,,,,,,,,,,,,,,,,,,,,Figures/confident_red.png,Figures/faces/4.png,Figures/confident_red.png,Figures/faces/14.png,Figures/confident_red.png,Figures/faces/15.png,Figures/confident_red.png,Figures/faces/5.png,,,right,3.3483,0,16,16,33,1,
,,,,,,,,,,SW26,,2021-09-25_08h16.23.254,beads_social_exp,2021.2.0,MacIntel,59.99880002,,,,,,,,,,,,,,,,,,,,,,,Figures/confident_red.png,Figures/faces/6.png,Figures/confident_red.png,Figures/faces/16.png,Figures/confident_red.png,Figures/faces/17.png,Figures/unconfident_green.png,Figures/faces/7.png,,,left,7.3653,0,17,17,25,1,
,,,,,,,,,,SW26,,2021-09-25_08h16.23.254,beads_social_exp,2021.2.0,MacIntel,59.99880002,,,,,,,,,,,,,,,,,,,,,,,Figures/confident_green.png,Figures/faces/10.png,Figures/confident_green.png,Figures/faces/20.png,Figures/unconfident_red.png,Figures/faces/11.png,Figures/unconfident_red.png,Figures/faces/1.png,,,left,5.4164,0,18,18,19,1,
,,,,,,,,,,SW26,,2021-09-25_08h16.23.254,beads_social_exp,2021.2.0,MacIntel,59.99880002,,,,,,,,,,,,,,,,,,,,,,,Figures/confident_red.png,Figures/faces/2.png,Figures/confident_red.png,Figures/faces/12.png,Figures/confident_red.png,Figures/faces/13.png,Figures/unconfident_green.png,Figures/faces/3.png,,,left,3.4811,0,19,19,21,1,
,,,,,,,,,,SW26,,2021-09-25_08h16.23.254,beads_social_exp,2021.2.0,MacIntel,59.99880002,,,,,,,,,,,,,,,,,,,,,,,Figures/confident_green.png,Figures/faces/9.png,Figures/confident_green.png,Figures/faces/19.png,Figures/unconfident_red.png,Figures/faces/20.png,Figures/unconfident_red.png,Figures/faces/10.png,,,right,4.9321,0,20,20,18,1,
,,,,,,,,,,SW26,,2021-09-25_08h16.23.254,beads_social_exp,2021.2.0,MacIntel,59.99880002,,,,,,,,,,,,,,,,,,,,,,,Figures/confident_green.png,Figures/faces/3.png,Figures/confident_green.png,Figures/faces/13.png,Figures/confident_green.png,Figures/faces/14.png,Figures/confident_green.png,Figures/faces/4.png,,,right,11.1994,0,21,21,2,1,
,,,,,,,,,,SW26,,2021-09-25_08h16.23.254,beads_social_exp,2021.2.0,MacIntel,59.99880002,,,,,,,,,,,,,,,,,,,,,,,Figures/confident_green.png,Figures/faces/2.png,Figures/confident_green.png,Figures/faces/12.png,Figures/confident_green.png,Figures/faces/13.png,Figures/unconfident_red.png,Figures/faces/3.png,,,left,6.9686,0,22,22,11,1,
,,,,,,,,,,SW26,,2021-09-25_08h16.23.254,beads_social_exp,2021.2.0,MacIntel,59.99880002,,,,,,,,,,,,,,,,,,,,,,,Figures/confident_red.png,Figures/faces/9.png,Figures/confident_red.png,Figures/faces/19.png,Figures/confident_red.png,Figures/faces/20.png,Figures/confident_red.png,Figures/faces/10.png,,,right,5.3887,0,23,23,28,1,
,,,,,,,,,,SW26,,2021-09-25_08h16.23.254,beads_social_exp,2021.2.0,MacIntel,59.99880002,,,,,,,,,,,,,,,,,,,,,,,Figures/confident_green.png,Figures/faces/4.png,Figures/confident_green.png,Figures/faces/14.png,Figures/confident_green.png,Figures/faces/15.png,Figures/confident_green.png,Figures/faces/5.png,,,right,3.0314,0,24,24,3,1,
,,,,,,,,,,SW26,,2021-09-25_08h16.23.254,beads_social_exp,2021.2.0,MacIntel,59.99880002,,,,,,,,,,,,,,,,,,,,,,,Figures/confident_green.png,Figures/faces/3.png,Figures/confident_green.png,Figures/faces/13.png,Figures/confident_green.png,Figures/faces/14.png,Figures/unconfident_red.png,Figures/faces/4.png,,,left,2.365,0,25,25,12,1,
,,,,,,,,,,SW26,,2021-09-25_08h16.23.254,beads_social_exp,2021.2.0,MacIntel,59.99880002,,,,,,,,,,,,,,,,,,,,,,,Figures/confident_green.png,Figures/faces/5.png,Figures/confident_green.png,Figures/faces/15.png,Figures/confident_green.png,Figures/faces/16.png,Figures/confident_green.png,Figures/faces/6.png,,,right,7.0329,0,26,26,4,1,
,,,,,,,,,,SW26,,2021-09-25_08h16.23.254,beads_social_exp,2021.2.0,MacIntel,59.99880002,,,,,,,,,,,,,,,,,,,,,,,Figures/confident_red.png,Figures/faces/1.png,Figures/confident_red.png,Figures/faces/11.png,Figures/confident_red.png,Figures/faces/12.png,Figures/confident_red.png,Figures/faces/2.png,,,right,2.5369,0,27,27,30,1,
,,,,,,,,,,SW26,,2021-09-25_08h16.23.254,beads_social_exp,2021.2.0,MacIntel,59.99880002,,,,,,,,,,,,,,,,,,,,,,,Figures/confident_red.png,Figures/faces/10.png,Figures/confident_red.png,Figures/faces/20.png,Figures/confident_red.png,Figures/faces/11.png,Figures/confident_red.png,Figures/faces/1.png,,,right,9.2365,0,28,28,29,1,
,,,,,,,,,,SW26,,2021-09-25_08h16.23.254,beads_social_exp,2021.2.0,MacIntel,59.99880002,,,,,,,,,,,,,,,,,,,,,,,Figures/confident_green.png,Figures/faces/1.png,Figures/confident_green.png,Figures/faces/11.png,Figures/unconfident_red.png,Figures/faces/12.png,Figures/unconfident_red.png,Figures/faces/2.png,,,right,2.0144,0,29,29,20,1,
,,,,,,,,,,SW26,,2021-09-25_08h16.23.254,beads_social_exp,2021.2.0,MacIntel,59.99880002,,,,,,,,,,,,,,,,,,,,,,,Figures/confident_red.png,Figures/faces/8.png,Figures/confident_red.png,Figures/faces/18.png,Figures/confident_red.png,Figures/faces/19.png,Figures/unconfident_green.png,Figures/faces/9.png,,,left,5.4836,0,30,30,27,1,
,,,,,,,,,,SW26,,2021-09-25_08h16.23.254,beads_social_exp,2021.2.0,MacIntel,59.99880002,,,,,,,,,,,,,,,,,,,,,,,Figures/confident_green.png,Figures/faces/2.png,Figures/confident_green.png,Figures/faces/12.png,Figures/confident_green.png,Figures/faces/13.png,Figures/confident_green.png,Figures/faces/3.png,,,right,7.4348,0,31,31,1,1,
,,,,,,,,,,SW26,,2021-09-25_08h16.23.254,beads_social_exp,2021.2.0,MacIntel,59.99880002,,,,,,,,,,,,,,,,,,,,,,,Figures/confident_green.png,Figures/faces/4.png,Figures/confident_green.png,Figures/faces/14.png,Figures/confident_green.png,Figures/faces/15.png,Figures/unconfident_red.png,Figures/faces/5.png,,,left,2.0481,0,32,32,13,1,
,,,,,,,,,,SW26,,2021-09-25_08h16.23.254,beads_social_exp,2021.2.0,MacIntel,59.99880002,,,,,,,,,,,,,,,,,,,,,,,Figures/confident_green.png,Figures/faces/8.png,Figures/confident_green.png,Figures/faces/18.png,Figures/unconfident_red.png,Figures/faces/19.png,Figures/unconfident_red.png,Figures/faces/9.png,,,right,2.3986,0,33,33,17,1,
,,,,,,,,,,SW26,,2021-09-25_08h16.23.254,beads_social_exp,2021.2.0,MacIntel,59.99880002,,,,,,,,,,,,,,,,,,,,,,,Figures/confident_green.png,Figures/faces/5.png,Figures/confident_green.png,Figures/faces/15.png,Figures/unconfident_red.png,Figures/faces/16.png,Figures/unconfident_red.png,Figures/faces/6.png,,,right,4.4491,0,34,34,14,1,
,,,,,,,,,,SW26,,2021-09-25_08h16.23.254,beads_social_exp,2021.2.0,MacIntel,59.99880002,,,,,,,,,,,,,,,,,,,,,,,Figures/confident_green.png,Figures/faces/9.png,Figures/confident_green.png,Figures/faces/19.png,Figures/confident_green.png,Figures/faces/20.png,Figures/unconfident_red.png,Figures/faces/10.png,,,left,6.998,1,0,35,8,1,
,,,,,,,,,,SW26,,2021-09-25_08h16.23.254,beads_social_exp,2021.2.0,MacIntel,59.99880002,,,,,,,,,,,,,,,,,,,,,,,Figures/confident_green.png,Figures/faces/8.png,Figures/confident_green.png,Figures/faces/18.png,Figures/unconfident_red.png,Figures/faces/19.png,Figures/unconfident_red.png,Figures/faces/9.png,,,right,3.6658,1,1,36,17,1,
,,,,,,,,,,SW26,,2021-09-25_08h16.23.254,beads_social_exp,2021.2.0,MacIntel,59.99880002,,,,,,,,,,,,,,,,,,,,,,,Figures/confident_green.png,Figures/faces/4.png,Figures/confident_green.png,Figures/faces/14.png,Figures/confident_green.png,Figures/faces/15.png,Figures/confident_green.png,Figures/faces/5.png,,,right,5.1192,1,2,37,3,1,
,,,,,,,,,,SW26,,2021-09-25_08h16.23.254,beads_social_exp,2021.2.0,MacIntel,59.99880002,,,,,,,,,,,,,,,,,,,,,,,Figures/confident_red.png,Figures/faces/5.png,Figures/confident_red.png,Figures/faces/15.png,Figures/confident_red.png,Figures/faces/16.png,Figures/unconfident_green.png,Figures/faces/6.png,,,right,2.265,1,3,38,24,1,
,,,,,,,,,,SW26,,2021-09-25_08h16.23.254,beads_social_exp,2021.2.0,MacIntel,59.99880002,,,,,,,,,,,,,,,,,,,,,,,Figures/confident_green.png,Figures/faces/10.png,Figures/confident_green.png,Figures/faces/20.png,Figures/unconfident_red.png,Figures/faces/11.png,Figures/unconfident_red.png,Figures/faces/1.png,,,right,7.5965,1,4,39,19,1,
,,,,,,,,,,SW26,,2021-09-25_08h16.23.254,beads_social_exp,2021.2.0,MacIntel,59.99880002,,,,,,,,,,,,,,,,,,,,,,,Figures/confident_green.png,Figures/faces/2.png,Figures/confident_green.png,Figures/faces/12.png,Figures/confident_green.png,Figures/faces/13.png,Figures/unconfident_red.png,Figures/faces/3.png,,,left,1.8738,1,5,40,11,1,
,,,,,,,,,,SW26,,2021-09-25_08h16.23.254,beads_social_exp,2021.2.0,MacIntel,59.99880002,,,,,,,,,,,,,,,,,,,,,,,Figures/confident_red.png,Figures/faces/7.png,Figures/confident_red.png,Figures/faces/17.png,Figures/confident_red.png,Figures/faces/18.png,Figures/unconfident_green.png,Figures/faces/8.png,,,right,7.2325,1,6,41,26,1,
,,,,,,,,,,SW26,,2021-09-25_08h16.23.254,beads_social_exp,2021.2.0,MacIntel,59.99880002,,,,,,,,,,,,,,,,,,,,,,,Figures/confident_green.png,Figures/faces/1.png,Figures/confident_green.png,Figures/faces/11.png,Figures/confident_green.png,Figures/faces/12.png,Figures/unconfident_red.png,Figures/faces/2.png,,,right,4.4809,1,7,42,10,1,
,,,,,,,,,,SW26,,2021-09-25_08h16.23.254,beads_social_exp,2021.2.0,MacIntel,59.99880002,,,,,,,,,,,,,,,,,,,,,,,Figures/confident_green.png,Figures/faces/7.png,Figures/confident_green.png,Figures/faces/17.png,Figures/unconfident_red.png,Figures/faces/18.png,Figures/unconfident_red.png,Figures/faces/8.png,,,left,2.1489,1,8,43,16,1,
,,,,,,,,,,SW26,,2021-09-25_08h16.23.254,beads_social_exp,2021.2.0,MacIntel,59.99880002,,,,,,,,,,,,,,,,,,,,,,,Figures/confident_red.png,Figures/faces/3.png,Figures/confident_red.png,Figures/faces/13.png,Figures/confident_red.png,Figures/faces/14.png,Figures/confident_red.png,Figures/faces/4.png,,,right,5.3712,1,9,44,32,1,
,,,,,,,,,,SW26,,2021-09-25_08h16.23.254,beads_social_exp,2021.2.0,MacIntel,59.99880002,,,,,,,,,,,,,,,,,,,,,,,Figures/confident_green.png,Figures/faces/3.png,Figures/confident_green.png,Figures/faces/13.png,Figures/confident_green.png,Figures/faces/14.png,Figures/confident_green.png,Figures/faces/4.png,,,left,5.7172,1,10,45,2,1,
,,,,,,,,,,SW26,,2021-09-25_08h16.23.254,beads_social_exp,2021.2.0,MacIntel,59.99880002,,,,,,,,,,,,,,,,,,,,,,,Figures/confident_red.png,Figures/faces/10.png,Figures/confident_red.png,Figures/faces/20.png,Figures/confident_red.png,Figures/faces/11.png,Figures/confident_red.png,Figures/faces/1.png,,,right,5.3146,1,11,46,29,1,
,,,,,,,,,,SW26,,2021-09-25_08h16.23.254,beads_social_exp,2021.2.0,MacIntel,59.99880002,,,,,,,,,,,,,,,,,,,,,,,Figures/confident_green.png,Figures/faces/6.png,Figures/confident_green.png,Figures/faces/16.png,Figures/confident_green.png,Figures/faces/17.png,Figures/confident_green.png,Figures/faces/7.png,,,right,2.8279,1,12,47,5,1,
,,,,,,,,,,SW26,,2021-09-25_08h16.23.254,beads_social_exp,2021.2.0,MacIntel,59.99880002,,,,,,,,,,,,,,,,,,,,,,,Figures/confident_green.png,Figures/faces/9.png,Figures/confident_green.png,Figures/faces/19.png,Figures/unconfident_red.png,Figures/faces/20.png,Figures/unconfident_red.png,Figures/faces/10.png,,,left,2.539,1,13,48,18,1,
,,,,,,,,,,SW26,,2021-09-25_08h16.23.254,beads_social_exp,2021.2.0,MacIntel,59.99880002,,,,,,,,,,,,,,,,,,,,,,,Figures/confident_green.png,Figures/faces/2.png,Figures/confident_green.png,Figures/faces/12.png,Figures/confident_green.png,Figures/faces/13.png,Figures/confident_green.png,Figures/faces/3.png,,,left,13.887,1,14,49,1,1,
,,,,,,,,,,SW26,,2021-09-25_08h16.23.254,beads_social_exp,2021.2.0,MacIntel,59.99880002,,,,,,,,,,,,,,,,,,,,,,,Figures/confident_red.png,Figures/faces/8.png,Figures/confident_red.png,Figures/faces/18.png,Figures/confident_red.png,Figures/faces/19.png,Figures/unconfident_green.png,Figures/faces/9.png,,,left,1.2529,1,15,50,27,1,
,,,,,,,,,,SW26,,2021-09-25_08h16.23.254,beads_social_exp,2021.2.0,MacIntel,59.99880002,,,,,,,,,,,,,,,,,,,,,,,Figures/confident_green.png,Figures/faces/6.png,Figures/confident_green.png,Figures/faces/16.png,Figures/unconfident_red.png,Figures/faces/17.png,Figures/unconfident_red.png,Figures/faces/7.png,,,right,3.7529,1,16,51,15,1,
,,,,,,,,,,SW26,,2021-09-25_08h16.23.254,beads_social_exp,2021.2.0,MacIntel,59.99880002,,,,,,,,,,,,,,,,,,,,,,,Figures/confident_red.png,Figures/faces/6.png,Figures/confident_red.png,Figures/faces/16.png,Figures/confident_red.png,Figures/faces/17.png,Figures/unconfident_green.png,Figures/faces/7.png,,,right,3.5485,1,17,52,25,1,
,,,,,,,,,,SW26,,2021-09-25_08h16.23.254,beads_social_exp,2021.2.0,MacIntel,59.99880002,,,,,,,,,,,,,,,,,,,,,,,Figures/confident_green.png,Figures/faces/7.png,Figures/confident_green.png,Figures/faces/17.png,Figures/confident_green.png,Figures/faces/18.png,Figures/confident_green.png,Figures/faces/8.png,,,right,8.4043,1,18,53,6,1,
,,,,,,,,,,SW26,,2021-09-25_08h16.23.254,beads_social_exp,2021.2.0,MacIntel,59.99880002,,,,,,,,,,,,,,,,,,,,,,,Figures/confident_green.png,Figures/faces/8.png,Figures/confident_green.png,Figures/faces/18.png,Figures/confident_green.png,Figures/faces/19.png,Figures/unconfident_red.png,Figures/faces/9.png,,,right,7.9668,1,19,54,7,1,
,,,,,,,,,,SW26,,2021-09-25_08h16.23.254,beads_social_exp,2021.2.0,MacIntel,59.99880002,,,,,,,,,,,,,,,,,,,,,,,Figures/confident_red.png,Figures/faces/2.png,Figures/confident_red.png,Figures/faces/12.png,Figures/confident_red.png,Figures/faces/13.png,Figures/unconfident_green.png,Figures/faces/3.png,,,right,1.4339,1,20,55,21,1,
,,,,,,,,,,SW26,,2021-09-25_08h16.23.254,beads_social_exp,2021.2.0,MacIntel,59.99880002,,,,,,,,,,,,,,,,,,,,,,,Figures/confident_green.png,Figures/faces/4.png,Figures/confident_green.png,Figures/faces/14.png,Figures/confident_green.png,Figures/faces/15.png,Figures/unconfident_red.png,Figures/faces/5.png,,,right,3.6795,1,21,56,13,1,
,,,,,,,,,,SW26,,2021-09-25_08h16.23.254,beads_social_exp,2021.2.0,MacIntel,59.99880002,,,,,,,,,,,,,,,,,,,,,,,Figures/confident_green.png,Figures/faces/3.png,Figures/confident_green.png,Figures/faces/13.png,Figures/confident_green.png,Figures/faces/14.png,Figures/unconfident_red.png,Figures/faces/4.png,,,right,1.7312,1,22,57,12,1,
,,,,,,,,,,SW26,,2021-09-25_08h16.23.254,beads_social_exp,2021.2.0,MacIntel,59.99880002,,,,,,,,,,,,,,,,,,,,,,,Figures/confident_green.png,Figures/faces/5.png,Figures/confident_green.png,Figures/faces/15.png,Figures/confident_green.png,Figures/faces/16.png,Figures/confident_green.png,Figures/faces/6.png,,,left,1.2352,1,23,58,4,1,
,,,,,,,,,,SW26,,2021-09-25_08h16.23.254,beads_social_exp,2021.2.0,MacIntel,59.99880002,,,,,,,,,,,,,,,,,,,,,,,Figures/confident_red.png,Figures/faces/9.png,Figures/confident_red.png,Figures/faces/19.png,Figures/confident_red.png,Figures/faces/20.png,Figures/confident_red.png,Figures/faces/10.png,,,right,6.9178,1,24,59,28,1,
,,,,,,,,,,SW26,,2021-09-25_08h16.23.254,beads_social_exp,2021.2.0,MacIntel,59.99880002,,,,,,,,,,,,,,,,,,,,,,,Figures/confident_red.png,Figures/faces/5.png,Figures/confident_red.png,Figures/faces/15.png,Figures/confident_red.png,Figures/faces/16.png,Figures/confident_red.png,Figures/faces/6.png,,,left,0.7373,1,25,60,34,1,
,,,,,,,,,,SW26,,2021-09-25_08h16.23.254,beads_social_exp,2021.2.0,MacIntel,59.99880002,,,,,,,,,,,,,,,,,,,,,,,Figures/confident_red.png,Figures/faces/3.png,Figures/confident_red.png,Figures/faces/13.png,Figures/confident_red.png,Figures/faces/14.png,Figures/unconfident_green.png,Figures/faces/4.png,,,left,0.9033,1,26,61,22,1,
,,,,,,,,,,SW26,,2021-09-25_08h16.23.254,beads_social_exp,2021.2.0,MacIntel,59.99880002,,,,,,,,,,,,,,,,,,,,,,,Figures/confident_green.png,Figures/faces/5.png,Figures/confident_green.png,Figures/faces/15.png,Figures/unconfident_red.png,Figures/faces/16.png,Figures/unconfident_red.png,Figures/faces/6.png,,,right,11.2338,1,27,62,14,1,
,,,,,,,,,,SW26,,2021-09-25_08h16.23.254,beads_social_exp,2021.2.0,MacIntel,59.99880002,,,,,,,,,,,,,,,,,,,,,,,Figures/confident_red.png,Figures/faces/1.png,Figures/confident_red.png,Figures/faces/11.png,Figures/confident_red.png,Figures/faces/12.png,Figures/confident_red.png,Figures/faces/2.png,,,left,21.3489,1,28,63,30,1,
,,,,,,,,,,SW26,,2021-09-25_08h16.23.254,beads_social_exp,2021.2.0,MacIntel,59.99880002,,,,,,,,,,,,,,,,,,,,,,,Figures/confident_red.png,Figures/faces/4.png,Figures/confident_red.png,Figures/faces/14.png,Figures/confident_red.png,Figures/faces/15.png,Figures/unconfident_green.png,Figures/faces/5.png,,,right,2.3556,1,29,64,23,1,
,,,,,,,,,,SW26,,2021-09-25_08h16.23.254,beads_social_exp,2021.2.0,MacIntel,59.99880002,,,,,,,,,,,,,,,,,,,,,,,Figures/confident_green.png,Figures/faces/1.png,Figures/confident_green.png,Figures/faces/11.png,Figures/unconfident_red.png,Figures/faces/12.png,Figures/unconfident_red.png,Figures/faces/2.png,,,right,2.4497,1,30,65,20,1,
,,,,,,,,,,SW26,,2021-09-25_08h16.23.254,beads_social_exp,2021.2.0,MacIntel,59.99880002,,,,,,,,,,,,,,,,,,,,,,,Figures/confident_red.png,Figures/faces/4.png,Figures/confident_red.png,Figures/faces/14.png,Figures/confident_red.png,Figures/faces/15.png,Figures/confident_red.png,Figures/faces/5.png,,,right,3.9145,1,31,66,33,1,
,,,,,,,,,,SW26,,2021-09-25_08h16.23.254,beads_social_exp,2021.2.0,MacIntel,59.99880002,,,,,,,,,,,,,,,,,,,,,,,Figures/confident_red.png,Figures/faces/2.png,Figures/confident_red.png,Figures/faces/12.png,Figures/confident_red.png,Figures/faces/13.png,Figures/confident_red.png,Figures/faces/3.png,,,right,1.8962,1,32,67,31,1,
,,,,,,,,,,SW26,,2021-09-25_08h16.23.254,beads_social_exp,2021.2.0,MacIntel,59.99880002,,,,,,,,,,,,,,,,,,,,,,,Figures/confident_green.png,Figures/faces/10.png,Figures/confident_green.png,Figures/faces/20.png,Figures/confident_green.png,Figures/faces/11.png,Figures/unconfident_red.png,Figures/faces/1.png,,,right,2.5614,1,33,68,9,1,
,,,,,,,,,,SW26,,2021-09-25_08h16.23.254,beads_social_exp,2021.2.0,MacIntel,59.99880002,,,,,,,,,,,,,,,,,,,,,,,Figures/confident_green.png,Figures/faces/1.png,Figures/confident_green.png,Figures/faces/11.png,Figures/confident_green.png,Figures/faces/12.png,Figures/confident_green.png,Figures/faces/2.png,,,left,2.6124,1,34,69,0,1,
,,,,,,,,,,SW26,,2021-09-25_08h16.23.254,beads_social_exp,2021.2.0,MacIntel,59.99880002,,,,,,,,,,,,,,,,,,,,,,,Figures/confident_green.png,Figures/faces/1.png,Figures/confident_green.png,Figures/faces/11.png,Figures/confident_green.png,Figures/faces/12.png,Figures/unconfident_red.png,Figures/faces/2.png,,,left,0.9529,2,0,70,10,1,
,,,,,,,,,,SW26,,2021-09-25_08h16.23.254,beads_social_exp,2021.2.0,MacIntel,59.99880002,,,,,,,,,,,,,,,,,,,,,,,Figures/confident_green.png,Figures/faces/8.png,Figures/confident_green.png,Figures/faces/18.png,Figures/confident_green.png,Figures/faces/19.png,Figures/unconfident_red.png,Figures/faces/9.png,,,right,3.7041,2,1,71,7,1,
,,,,,,,,,,SW26,,2021-09-25_08h16.23.254,beads_social_exp,2021.2.0,MacIntel,59.99880002,,,,,,,,,,,,,,,,,,,,,,,Figures/confident_red.png,Figures/faces/8.png,Figures/confident_red.png,Figures/faces/18.png,Figures/confident_red.png,Figures/faces/19.png,Figures/unconfident_green.png,Figures/faces/9.png,,,left,2.9309,2,2,72,27,1,
,,,,,,,,,,SW26,,2021-09-25_08h16.23.254,beads_social_exp,2021.2.0,MacIntel,59.99880002,,,,,,,,,,,,,,,,,,,,,,,Figures/confident_red.png,Figures/faces/2.png,Figures/confident_red.png,Figures/faces/12.png,Figures/confident_red.png,Figures/faces/13.png,Figures/unconfident_green.png,Figures/faces/3.png,,,right,2.5823,2,3,73,21,1,
,,,,,,,,,,SW26,,2021-09-25_08h16.23.254,beads_social_exp,2021.2.0,MacIntel,59.99880002,,,,,,,,,,,,,,,,,,,,,,,Figures/confident_red.png,Figures/faces/7.png,Figures/confident_red.png,Figures/faces/17.png,Figures/confident_red.png,Figures/faces/18.png,Figures/unconfident_green.png,Figures/faces/8.png,,,right,4.7786,2,4,74,26,1,
,,,,,,,,,,SW26,,2021-09-25_08h16.23.254,beads_social_exp,2021.2.0,MacIntel,59.99880002,,,,,,,,,,,,,,,,,,,,,,,Figures/confident_red.png,Figures/faces/9.png,Figures/confident_red.png,Figures/faces/19.png,Figures/confident_red.png,Figures/faces/20.png,Figures/confident_red.png,Figures/faces/10.png,,,left,2.3902,2,5,75,28,1,
,,,,,,,,,,SW26,,2021-09-25_08h16.23.254,beads_social_exp,2021.2.0,MacIntel,59.99880002,,,,,,,,,,,,,,,,,,,,,,,Figures/confident_green.png,Figures/faces/3.png,Figures/confident_green.png,Figures/faces/13.png,Figures/confident_green.png,Figures/faces/14.png,Figures/confident_green.png,Figures/faces/4.png,,,left,2.5488,2,6,76,2,1,
,,,,,,,,,,SW26,,2021-09-25_08h16.23.254,beads_social_exp,2021.2.0,MacIntel,59.99880002,,,,,,,,,,,,,,,,,,,,,,,Figures/confident_red.png,Figures/faces/1.png,Figures/confident_red.png,Figures/faces/11.png,Figures/confident_red.png,Figures/faces/12.png,Figures/confident_red.png,Figures/faces/2.png,,,right,8.4712,2,7,77,30,1,
,,,,,,,,,,SW26,,2021-09-25_08h16.23.254,beads_social_exp,2021.2.0,MacIntel,59.99880002,,,,,,,,,,,,,,,,,,,,,,,Figures/confident_green.png,Figures/faces/2.png,Figures/confident_green.png,Figures/faces/12.png,Figures/confident_green.png,Figures/faces/13.png,Figures/unconfident_red.png,Figures/faces/3.png,,,right,3.5835,2,8,78,11,1,
,,,,,,,,,,SW26,,2021-09-25_08h16.23.254,beads_social_exp,2021.2.0,MacIntel,59.99880002,,,,,,,,,,,,,,,,,,,,,,,Figures/confident_green.png,Figures/faces/1.png,Figures/confident_green.png,Figures/faces/11.png,Figures/unconfident_red.png,Figures/faces/12.png,Figures/unconfident_red.png,Figures/faces/2.png,,,left,2.4262,2,9,79,20,1,
,,,,,,,,,,SW26,,2021-09-25_08h16.23.254,beads_social_exp,2021.2.0,MacIntel,59.99880002,,,,,,,,,,,,,,,,,,,,,,,Figures/confident_green.png,Figures/faces/4.png,Figures/confident_green.png,Figures/faces/14.png,Figures/confident_green.png,Figures/faces/15.png,Figures/confident_green.png,Figures/faces/5.png,,,right,1.5733,2,10,80,3,1,
,,,,,,,,,,SW26,,2021-09-25_08h16.23.254,beads_social_exp,2021.2.0,MacIntel,59.99880002,,,,,,,,,,,,,,,,,,,,,,,Figures/confident_red.png,Figures/faces/10.png,Figures/confident_red.png,Figures/faces/20.png,Figures/confident_red.png,Figures/faces/11.png,Figures/confident_red.png,Figures/faces/1.png,,,right,1.7374,2,11,81,29,1,
,,,,,,,,,,SW26,,2021-09-25_08h16.23.254,beads_social_exp,2021.2.0,MacIntel,59.99880002,,,,,,,,,,,,,,,,,,,,,,,Figures/confident_red.png,Figures/faces/3.png,Figures/confident_red.png,Figures/faces/13.png,Figures/confident_red.png,Figures/faces/14.png,Figures/confident_red.png,Figures/faces/4.png,,,left,7.4285,2,12,82,32,1,
,,,,,,,,,,SW26,,2021-09-25_08h16.23.254,beads_social_exp,2021.2.0,MacIntel,59.99880002,,,,,,,,,,,,,,,,,,,,,,,Figures/confident_red.png,Figures/faces/6.png,Figures/confident_red.png,Figures/faces/16.png,Figures/confident_red.png,Figures/faces/17.png,Figures/unconfident_green.png,Figures/faces/7.png,,,left,18.1802,2,13,83,25,1,
,,,,,,,,,,SW26,,2021-09-25_08h16.23.254,beads_social_exp,2021.2.0,MacIntel,59.99880002,,,,,,,,,,,,,,,,,,,,,,,Figures/confident_red.png,Figures/faces/2.png,Figures/confident_red.png,Figures/faces/12.png,Figures/confident_red.png,Figures/faces/13.png,Figures/confident_red.png,Figures/faces/3.png,,,right,2.3557,2,14,84,31,1,
,,,,,,,,,,SW26,,2021-09-25_08h16.23.254,beads_social_exp,2021.2.0,MacIntel,59.99880002,,,,,,,,,,,,,,,,,,,,,,,Figures/confident_green.png,Figures/faces/6.png,Figures/confident_green.png,Figures/faces/16.png,Figures/confident_green.png,Figures/faces/17.png,Figures/confident_green.png,Figures/faces/7.png,,,right,0.9234,2,15,85,5,1,
,,,,,,,,,,SW26,,2021-09-25_08h16.23.254,beads_social_exp,2021.2.0,MacIntel,59.99880002,,,,,,,,,,,,,,,,,,,,,,,Figures/confident_green.png,Figures/faces/9.png,Figures/confident_green.png,Figures/faces/19.png,Figures/confident_green.png,Figures/faces/20.png,Figures/unconfident_red.png,Figures/faces/10.png,,,left,1.9984,2,16,86,8,1,
,,,,,,,,,,SW26,,2021-09-25_08h16.23.254,beads_social_exp,2021.2.0,MacIntel,59.99880002,,,,,,,,,,,,,,,,,,,,,,,Figures/confident_green.png,Figures/faces/5.png,Figures/confident_green.png,Figures/faces/15.png,Figures/unconfident_red.png,Figures/faces/16.png,Figures/unconfident_red.png,Figures/faces/6.png,,,left,2.6524,2,17,87,14,1,
,,,,,,,,,,SW26,,2021-09-25_08h16.23.254,beads_social_exp,2021.2.0,MacIntel,59.99880002,,,,,,,,,,,,,,,,,,,,,,,Figures/confident_green.png,Figures/faces/1.png,Figures/confident_green.png,Figures/faces/11.png,Figures/confident_green.png,Figures/faces/12.png,Figures/confident_green.png,Figures/faces/2.png,,,right,3.4707,2,18,88,0,1,
,,,,,,,,,,SW26,,2021-09-25_08h16.23.254,beads_social_exp,2021.2.0,MacIntel,59.99880002,,,,,,,,,,,,,,,,,,,,,,,Figures/confident_green.png,Figures/faces/10.png,Figures/confident_green.png,Figures/faces/20.png,Figures/confident_green.png,Figures/faces/11.png,Figures/unconfident_red.png,Figures/faces/1.png,,,left,2.1648,2,19,89,9,1,
,,,,,,,,,,SW26,,2021-09-25_08h16.23.254,beads_social_exp,2021.2.0,MacIntel,59.99880002,,,,,,,,,,,,,,,,,,,,,,,Figures/confident_green.png,Figures/faces/2.png,Figures/confident_green.png,Figures/faces/12.png,Figures/confident_green.png,Figures/faces/13.png,Figures/confident_green.png,Figures/faces/3.png,,,left,3.2475,2,20,90,1,1,
,,,,,,,,,,SW26,,2021-09-25_08h16.23.254,beads_social_exp,2021.2.0,MacIntel,59.99880002,,,,,,,,,,,,,,,,,,,,,,,Figures/confident_green.png,Figures/faces/5.png,Figures/confident_green.png,Figures/faces/15.png,Figures/confident_green.png,Figures/faces/16.png,Figures/confident_green.png,Figures/faces/6.png,,,left,3.8612,2,21,91,4,1,
,,,,,,,,,,SW26,,2021-09-25_08h16.23.254,beads_social_exp,2021.2.0,MacIntel,59.99880002,,,,,,,,,,,,,,,,,,,,,,,Figures/confident_green.png,Figures/faces/7.png,Figures/confident_green.png,Figures/faces/17.png,Figures/unconfident_red.png,Figures/faces/18.png,Figures/unconfident_red.png,Figures/faces/8.png,,,right,1.1784,2,22,92,16,1,
,,,,,,,,,,SW26,,2021-09-25_08h16.23.254,beads_social_exp,2021.2.0,MacIntel,59.99880002,,,,,,,,,,,,,,,,,,,,,,,Figures/confident_red.png,Figures/faces/3.png,Figures/confident_red.png,Figures/faces/13.png,Figures/confident_red.png,Figures/faces/14.png,Figures/unconfident_green.png,Figures/faces/4.png,,,left,1.4641,2,23,93,22,1,
,,,,,,,,,,SW26,,2021-09-25_08h16.23.254,beads_social_exp,2021.2.0,MacIntel,59.99880002,,,,,,,,,,,,,,,,,,,,,,,Figures/confident_green.png,Figures/faces/8.png,Figures/confident_green.png,Figures/faces/18.png,Figures/unconfident_red.png,Figures/faces/19.png,Figures/unconfident_red.png,Figures/faces/9.png,,,right,3.6829,2,24,94,17,1,
,,,,,,,,,,SW26,,2021-09-25_08h16.23.254,beads_social_exp,2021.2.0,MacIntel,59.99880002,,,,,,,,,,,,,,,,,,,,,,,Figures/confident_green.png,Figures/faces/10.png,Figures/confident_green.png,Figures/faces/20.png,Figures/unconfident_red.png,Figures/faces/11.png,Figures/unconfident_red.png,Figures/faces/1.png,,,right,1.3025,2,25,95,19,1,
,,,,,,,,,,SW26,,2021-09-25_08h16.23.254,beads_social_exp,2021.2.0,MacIntel,59.99880002,,,,,,,,,,,,,,,,,,,,,,,Figures/confident_green.png,Figures/faces/4.png,Figures/confident_green.png,Figures/faces/14.png,Figures/confident_green.png,Figures/faces/15.png,Figures/unconfident_red.png,Figures/faces/5.png,,,right,1.238,2,26,96,13,1,
,,,,,,,,,,SW26,,2021-09-25_08h16.23.254,beads_social_exp,2021.2.0,MacIntel,59.99880002,,,,,,,,,,,,,,,,,,,,,,,Figures/confident_red.png,Figures/faces/4.png,Figures/confident_red.png,Figures/faces/14.png,Figures/confident_red.png,Figures/faces/15.png,Figures/confident_red.png,Figures/faces/5.png,,,right,2.0156,2,27,97,33,1,
,,,,,,,,,,SW26,,2021-09-25_08h16.23.254,beads_social_exp,2021.2.0,MacIntel,59.99880002,,,,,,,,,,,,,,,,,,,,,,,Figures/confident_red.png,Figures/faces/5.png,Figures/confident_red.png,Figures/faces/15.png,Figures/confident_red.png,Figures/faces/16.png,Figures/confident_red.png,Figures/faces/6.png,,,left,3.0358,2,28,98,34,1,
,,,,,,,,,,SW26,,2021-09-25_08h16.23.254,beads_social_exp,2021.2.0,MacIntel,59.99880002,,,,,,,,,,,,,,,,,,,,,,,Figures/confident_green.png,Figures/faces/3.png,Figures/confident_green.png,Figures/faces/13.png,Figures/confident_green.png,Figures/faces/14.png,Figures/unconfident_red.png,Figures/faces/4.png,,,right,7.5651,2,29,99,12,1,
,,,,,,,,,,SW26,,2021-09-25_08h16.23.254,beads_social_exp,2021.2.0,MacIntel,59.99880002,,,,,,,,,,,,,,,,,,,,,,,Figures/confident_green.png,Figures/faces/7.png,Figures/confident_green.png,Figures/faces/17.png,Figures/confident_green.png,Figures/faces/18.png,Figures/confident_green.png,Figures/faces/8.png,,,left,1.6789,2,30,100,6,1,
,,,,,,,,,,SW26,,2021-09-25_08h16.23.254,beads_social_exp,2021.2.0,MacIntel,59.99880002,,,,,,,,,,,,,,,,,,,,,,,Figures/confident_red.png,Figures/faces/4.png,Figures/confident_red.png,Figures/faces/14.png,Figures/confident_red.png,Figures/faces/15.png,Figures/unconfident_green.png,Figures/faces/5.png,,,left,2.5139,2,31,101,23,1,
,,,,,,,,,,SW26,,2021-09-25_08h16.23.254,beads_social_exp,2021.2.0,MacIntel,59.99880002,,,,,,,,,,,,,,,,,,,,,,,Figures/confident_green.png,Figures/faces/6.png,Figures/confident_green.png,Figures/faces/16.png,Figures/unconfident_red.png,Figures/faces/17.png,Figures/unconfident_red.png,Figures/faces/7.png,,,right,1.8797,2,32,102,15,1,
,,,,,,,,,,SW26,,2021-09-25_08h16.23.254,beads_social_exp,2021.2.0,MacIntel,59.99880002,,,,,,,,,,,,,,,,,,,,,,,Figures/confident_red.png,Figures/faces/5.png,Figures/confident_red.png,Figures/faces/15.png,Figures/confident_red.png,Figures/faces/16.png,Figures/unconfident_green.png,Figures/faces/6.png,,,right,1.6374,2,33,103,24,1,
,,,,,,,,,,SW26,,2021-09-25_08h16.23.254,beads_social_exp,2021.2.0,MacIntel,59.99880002,,,,,,,,,,,,,,,,,,,,,,,Figures/confident_green.png,Figures/faces/9.png,Figures/confident_green.png,Figures/faces/19.png,Figures/unconfident_red.png,Figures/faces/20.png,Figures/unconfident_red.png,Figures/faces/10.png,,,right,8.1121,2,34,104,18,1,
,,,,,,,,,,SW26,,2021-09-25_08h16.23.254,beads_social_exp,2021.2.0,MacIntel,59.99880002,,,,,,,,,,,,,,,,,,,,,,,,,,,,,,,,,,,,,,,,
